name,label,sub_class,dynamic_state,cyclic_uid,age,world_width,world_height,lat_dist,long_dist,vert_dist,rel_vel_x,rel_acc_x,rel_vel_z,rel_acc_z,abs_vel_x,abs_acc_x,abs_vel_z,abs_acc_z,POS_LEFT_x,POS_LEFT_z,POS_CENTER_x,POS_CENTER_z,POS_RIGHT_x,POS_RIGHT_z,POS_DISTANT_x,POS_DISTANT_z,lane_association,conf,is_cipv,uid,eba_bitmask,vacc_quality,x_center,y_center,d3_separation,width,height,sf_confirmed,class_right_id,class_left_id,score,is_occluded,side_occlusion_type,permissive_side_occlusion_type,x_l,y_lt,y_lb,x_s,y_st,y_sb,x_r,y_rt,y_rb,matching_radar_cluster_top_left_x,matching_radar_cluster_top_left_z,matching_radar_cluster_width,matching_radar_cluster_height,matching_radar_cluster_is_static,matching_radar_cluster_center_x,matching_radar_cluster_center_z,update_type,reaction_profile,tracked_vel_x,tracked_vel_z,rc_raw_meas_x,rc_raw_meas_z,rc_tracked_pos_x,rc_tracked_pos_z,rc_tracked_vel_x,rc_tracked_vel_z,rc_tracked_acc_x,rc_tracked_acc_z,fd_raw_meas_x,fd_raw_meas_z,fd_tracked_pos_x,fd_tracked_pos_z,fd_tracked_vel_x,fd_tracked_vel_z,fd_tracked_acc_x,fd_tracked_acc_z,rc_weight_pos,rc_weight_kinematics,of_ittc_z,of_rel_vel_z,width_est,orientation,sf_orientation,cametra_origin,debug_field_0,debug_field_1,debug_field_2,Unnamed: 92
1690794336500167,2,1,1,2,16,1.79,1.39,5.19,4.17,-0.02,0.0,-0.0,-0.8,0.15,-0.01,-0.0,4.94,0.4,6.37,8.38,5.87,4.14,7.64,3.93,8.15,8.17,0,0.0,0,0,0xA00,100,3722.57,1256.99,3746.97,1322.35,452.68,1,2,1,96.502029,0,0,0,3061.399658,1037.374878,1304.722778,3746.966064,1030.64917,1483.324707,4383.748047,1029.207397,1492.395508,-1.0,-1.0,-1.0,-1.0,0,0.0,0.0,1,2,-0.01,-0.78,5.19,4.17,5.19,4.18,-0.01,-0.78,-0.0,0.15,5.19,4.17,5.19,4.16,-0.06,-1.26,-0.0,0.15,0.997527,0.997527,0.0,0.0,0,0.118558,0.11829,0,0.0,0.0,0.0,
1690794336500167,2,1,0,0,16,1.7,1.52,0.44,8.78,0.1,0.02,-0.0,0.15,0.09,-0.01,-0.0,5.87,0.34,-0.42,8.74,1.28,8.74,1.28,13.02,-0.42,13.02,1,0.92,1,1,0x0,100,1916.76,1136.24,1755.44,322.64,290.2,1,2,2,96.036118,1,1,1,1755.442017,991.135925,1281.339355,1755.442017,991.135925,1281.339355,2078.086182,990.923645,1279.253906,-1.0,-1.0,-1.0,-1.0,0,0.0,0.0,1,2,-0.01,0.15,0.43,8.78,0.44,8.77,-0.01,0.15,-0.0,0.09,0.45,9.3,0.46,9.29,-0.02,0.16,-0.0,0.09,0.997391,0.997391,0.000247,0.077572,1,0.00086,0.0,0,0.0,0.0,0.0,
1690794336500167,2,1,1,8,16,1.79,1.41,9.21,13.53,-0.08,0.02,-0.0,-1.97,0.15,-0.04,-0.0,3.79,0.4,9.58,17.78,9.54,13.51,11.33,13.5,11.37,17.77,0,0.0,0,3,0x800,100,3037.56,1135.59,3054.3,480.59,179.78,1,2,1,93.189766,0,0,0,2797.268555,1046.093994,1187.359253,3054.296143,1045.694946,1225.478149,3277.854004,1045.294434,1224.445068,-1.0,-1.0,-1.0,-1.0,0,0.0,0.0,1,1,-0.04,-1.93,8.79,12.78,8.83,12.91,0.0,-1.39,0.0,0.15,9.52,13.99,9.56,14.11,-0.08,-2.44,-0.0,0.15,0.482595,0.482595,0.0,0.0,0,0.00925,0.024107,0,0.0,0.0,0.0,
1690794336500167,2,1,1,6,16,1.37,1.52,9.22,22.47,-0.0,0.03,-0.0,-1.98,0.15,-0.07,-0.0,3.78,0.4,9.19,25.73,8.95,22.48,10.31,22.38,10.55,25.64,0,0.0,0,4,0x800,100,2585.68,1092.75,2563.61,180.35,123.22,1,2,1,93.300476,0,0,0,2495.504639,1033.035889,1141.834473,2563.608887,1031.145264,1154.363525,2675.852051,1030.916992,1154.358765,-1.0,-1.0,-1.0,-1.0,0,0.0,0.0,1,0,-0.07,-1.94,9.04,22.04,9.04,22.04,-0.07,-1.94,-0.0,0.15,9.04,22.04,9.1,22.5,-0.07,-1.94,-0.0,0.15,0.044716,0.044716,0.0,0.0,0,0.07282,0.07282,0,0.0,0.0,0.0,
1690794336500167,2,1,0,4,16,1.79,1.59,7.32,22.96,-0.21,0.06,-0.0,-0.37,0.15,-0.04,-0.0,5.38,0.4,6.96,27.26,7.0,22.98,8.79,22.99,8.75,27.27,0,0.0,0,2,0x800,100,2424.07,1106.06,2395.72,225.3,127.11,1,2,1,95.413742,0,0,0,2311.41748,1043.253174,1151.793457,2395.720703,1042.506714,1169.617676,2536.714355,1042.268677,1168.936523,-1.0,-1.0,-1.0,-1.0,0,0.0,0.0,1,0,-0.04,-0.34,6.39,19.71,6.39,19.71,-0.04,-0.34,-0.0,0.15,7.3,22.8,7.37,23.13,-0.04,-0.34,-0.0,0.15,0.048426,0.048426,0.0,0.0,1,-0.008678,-0.004929,0,0.0,0.0,0.0,
1690794336500167,0,3,3,10,16,0.88,1.6,13.21,27.03,-0.04,-1.21,-0.0,-5.51,-0.19,-1.32,-0.0,0.27,0.06,12.7,27.05,13.58,27.02,13.58,27.03,12.7,27.06,0,0.0,0,10,0x0,100,2732.21,1084.68,2702.44,60.07,109.16,1,-1,-1,83.722107,1,1,1,2702.170654,1030.104248,1139.223755,2702.438721,1030.098389,1139.255127,2762.243164,1029.991333,1139.147583,-1.0,-1.0,-1.0,-1.0,0,0.0,0.0,1,2,-1.32,-5.45,12.96,26.64,12.5,25.51,-1.38,-5.63,-0.0,-0.19,13.95,28.83,13.41,27.47,-1.31,-5.4,-0.0,-0.19,0.222222,0.222222,0.0,0.0,0,0.00086,0.0,0,0.0,0.0,0.0,
1690794336500167,2,1,0,1,16,1.56,1.44,3.96,28.09,-0.02,0.12,0.0,1.69,0.16,-0.0,0.0,7.42,0.41,3.16,28.23,4.71,28.06,5.16,32.31,3.61,32.47,0,0.0,0,5,0x800,100,2098.08,1088.94,2046.12,103.91,95.61,1,2,2,90.157463,1,2,2,2046.120117,1041.133545,1136.745483,2046.120117,1041.133545,1136.745483,2150.033936,1040.92688,1136.862915,-1.0,-1.0,-1.0,-1.0,0,0.0,0.0,1,0,-0.0,1.7,3.78,26.88,3.78,26.88,-0.0,1.7,0.0,0.16,3.96,28.31,3.96,28.1,-0.0,1.7,0.0,0.16,0.009017,0.009017,0.0,0.0,0,0.105577,0.105577,0,0.0,0.0,0.0,
1690794336500167,2,1,1,9,16,0.92,1.45,13.04,28.41,-0.11,-0.2,-0.01,-2.39,0.15,-0.32,-0.01,3.39,0.4,13.34,30.5,12.61,28.43,13.48,28.13,14.21,30.2,0,0.0,0,8,0x800,100,2686.04,1092.33,2657.99,72.65,94.43,1,2,1,81.859184,1,3,3,2649.719482,1045.190796,1133.565796,2657.992188,1045.111328,1139.540161,2722.367188,1044.987061,1140.252075,-1.0,-1.0,-1.0,-1.0,0,0.0,0.0,1,0,-0.32,-2.33,11.49,24.85,11.49,24.85,-0.32,-2.33,-0.01,0.15,12.27,26.65,12.57,28.43,-0.32,-2.33,-0.01,0.15,0.0,0.0,0.0,0.0,0,0.368256,0.368256,0,0.0,0.0,0.0,
1690794336500167,2,1,0,3,16,1.51,1.46,6.0,29.77,0.06,0.11,-0.0,-0.08,0.15,-0.02,-0.0,5.66,0.4,5.62,33.38,5.51,29.79,7.02,29.74,7.12,33.34,0,0.0,0,6,0x800,100,2215.8,1080.38,2183.17,123.94,92.16,1,2,1,92.366119,1,2,2,2153.83252,1035.639038,1118.425293,2183.16626,1034.29895,1126.462158,2277.77417,1034.135986,1126.252197,-1.0,-1.0,-1.0,-1.0,0,0.0,0.0,1,0,-0.02,-0.06,6.38,31.59,6.38,31.59,-0.02,-0.06,-0.0,0.15,5.97,29.46,6.0,29.76,-0.02,-0.06,-0.0,0.15,0.007336,0.007336,0.0,0.0,0,0.029383,0.017748,0,0.0,0.0,0.0,
1690794336500167,2,1,0,5,16,1.09,1.42,9.17,39.12,0.16,0.21,0.0,-0.45,0.16,0.04,0.0,5.31,0.41,8.58,39.32,9.65,39.1,10.53,43.28,9.46,43.5,0,0.0,0,9,0x800,100,2277.28,1068.88,2250.56,53.45,68.66,1,2,2,88.007751,1,3,3,2250.559814,1034.552979,1103.213623,2250.559814,1034.552979,1103.213623,2304.008057,1034.403564,1103.36438,-1.0,-1.0,-1.0,-1.0,0,0.0,0.0,1,0,0.04,-0.41,10.28,44.41,10.28,44.41,0.04,-0.41,0.0,0.16,9.29,39.91,9.17,39.12,0.04,-0.41,0.0,0.16,0.0,0.0,0.0,0.0,0,0.206812,0.206812,0,0.0,0.0,0.0,
1690794336500167,2,1,0,7,16,1.79,1.27,12.85,40.89,0.25,0.87,0.03,8.71,0.17,0.69,0.03,14.48,0.42,11.19,44.95,12.55,40.9,14.25,41.47,12.89,45.52,0,0.0,0,7,0x1800,100,2398.64,1067.15,2417.55,175.88,58.63,1,2,1,83.481125,1,3,3,2310.701172,1038.762085,1092.431519,2417.553467,1037.833374,1096.464966,2486.584473,1037.836182,1095.616089,-1.0,-1.0,-1.0,-1.0,0,0.0,0.0,1,0,0.69,8.76,14.53,51.67,14.53,51.67,0.69,8.76,0.03,0.17,13.29,47.12,12.85,40.85,0.69,8.76,0.03,0.17,0.0,0.0,0.0,0.0,0,-0.323583,-0.473864,0,0.0,0.0,0.0,
1690794337000148,2,1,1,2,31,1.79,1.39,5.14,3.55,-0.02,-0.02,-0.0,-0.98,0.24,-0.04,-0.0,4.89,0.4,6.32,7.77,5.82,3.53,7.6,3.32,8.1,7.56,0,0.0,0,0,0x800,100,3889.72,1270.91,3938.85,1524.82,502.14,1,1,1,96.502029,0,0,0,3127.313965,1027.62793,1311.441406,3938.845459,1019.844727,1521.984009,4652.129883,1018.326416,1533.443359,-1.0,-1.0,-1.0,-1.0,0,0.0,0.0,1,2,-0.04,-0.95,5.14,3.55,5.14,3.54,-0.04,-0.95,-0.0,0.24,5.14,3.55,5.14,3.54,-0.08,-1.16,-0.0,0.25,0.997527,0.997527,0.0,0.0,0,0.118595,0.11829,0,0.0,0.0,0.0,
1690794337000148,2,1,0,0,31,1.74,1.51,0.43,8.81,0.1,0.02,-0.0,0.11,0.13,-0.03,-0.0,5.96,0.28,-0.44,8.78,1.3,8.78,1.3,13.05,-0.44,13.05,1,0.91,1,1,0x0,100,1916.68,1128.47,1752.35,328.67,285.45,1,2,2,97.057648,1,1,1,1752.348999,985.746094,1271.195801,1752.348999,985.746094,1271.195801,2081.019531,985.564819,1269.138184,-1.0,-1.0,-1.0,-1.0,0,0.0,0.0,1,2,-0.03,0.12,0.43,8.86,0.43,8.81,-0.03,0.12,-0.0,0.13,0.44,9.09,0.44,9.06,-0.04,0.11,-0.0,0.11,0.996611,0.996611,0.00028,0.088922,1,0.00109,0.0,0,0.0,0.0,0.0,
1690794337000148,2,1,1,8,31,1.79,1.34,8.97,11.9,-0.07,-0.08,-0.01,-2.38,0.22,-0.14,-0.01,3.51,0.38,9.55,16.14,9.58,11.87,11.37,11.88,11.34,16.15,0,0.0,0,3,0x800,100,3163.97,1139.94,3201.5,566.92,191.36,1,2,1,92.762596,0,0,0,2880.512695,1042.859619,1189.560669,3201.501953,1044.26001,1235.615234,3447.437012,1043.819458,1234.076172,-1.0,-1.0,-1.0,-1.0,0,0.0,0.0,1,1,-0.14,-2.34,8.58,11.3,8.56,11.28,-0.21,-2.41,-0.01,0.21,9.69,13.0,9.69,12.99,-0.02,-2.21,0.0,0.25,0.63895,0.63895,0.0,0.0,0,-0.005136,-0.008974,0,0.0,0.0,0.0,
1690794337000148,2,1,1,6,31,1.45,1.48,8.66,20.01,-0.03,-0.25,-0.02,-3.47,0.22,-0.35,-0.02,2.42,0.38,8.68,23.48,8.58,20.02,10.03,19.97,10.13,23.43,0,0.0,0,4,0x800,100,2628.07,1092.6,2611.09,226.86,133.71,1,2,1,93.806732,1,1,1,2514.644287,1027.415649,1143.049316,2611.094971,1025.745239,1159.459595,2741.50415,1025.543091,1159.176758,-1.0,-1.0,-1.0,-1.0,0,0.0,0.0,1,0,-0.35,-3.42,8.69,19.74,8.69,19.74,-0.35,-3.42,-0.02,0.22,8.62,19.57,8.66,20.04,-0.35,-3.42,-0.02,0.22,0.068351,0.068351,0.0,0.0,0,0.030908,0.021213,0,0.0,0.0,0.0,
1690794337000148,2,1,0,4,31,1.77,1.72,7.62,23.8,-0.35,0.25,0.01,1.02,0.27,0.12,0.01,6.9,0.42,7.23,28.04,7.3,23.81,9.08,23.84,9.0,28.07,0,0.0,0,2,0x800,100,2426.04,1100.31,2401.08,218.81,132.79,1,2,1,94.585129,0,0,0,2316.64209,1034.526367,1148.64917,2401.075684,1033.913574,1166.706177,2535.447754,1033.71167,1165.979614,-1.0,-1.0,-1.0,-1.0,0,0.0,0.0,1,0,0.12,1.06,6.08,18.61,6.08,18.61,0.12,1.06,0.01,0.27,7.67,23.95,7.73,24.16,0.12,1.06,0.01,0.27,0.065215,0.065215,0.0,0.0,1,-0.017752,-0.015184,0,0.0,0.0,0.0,
1690794337000148,0,3,0,10,31,0.82,1.58,14.43,28.61,-0.12,0.06,-0.0,-2.85,-0.19,-0.1,-0.0,3.07,-0.03,13.91,28.63,14.74,28.6,14.74,28.61,13.91,28.64,0,0.0,0,10,0x0,100,2761.45,1079.31,2735.02,53.38,102.14,1,-1,-1,66.823105,0,0,0,2734.759277,1028.241943,1130.349121,2735.023682,1028.23877,1130.378906,2788.136719,1028.153564,1130.293457,-1.0,-1.0,-1.0,-1.0,0,0.0,0.0,2,2,-0.1,-2.77,13.3,26.45,12.57,24.86,-1.07,-4.54,-0.0,-0.19,15.4,30.9,14.68,29.12,0.03,-2.53,-0.0,-0.19,0.117143,0.117143,0.0,0.0,0,0.001248,0.0,0,0.0,0.0,0.0,
1690794337000148,2,1,0,1,31,1.32,1.47,3.83,28.66,-0.14,0.03,-0.01,1.43,0.24,-0.12,-0.01,7.29,0.4,3.21,28.77,4.52,28.63,4.97,32.88,3.65,33.02,0,0.0,0,5,0x800,100,2088.63,1085.6,2045.3,86.82,95.67,1,2,2,90.690079,1,1,1,2045.221924,1037.776367,1121.765625,2045.295654,1037.760742,1133.431274,2132.043701,1037.621338,1133.557251,-1.0,-1.0,-1.0,-1.0,0,0.0,0.0,1,0,-0.12,1.45,3.39,25.0,3.39,25.0,-0.12,1.45,-0.01,0.24,3.81,28.31,3.84,28.7,-0.12,1.45,-0.01,0.24,0.009017,0.009017,0.0,0.0,0,0.104233,0.104233,0,0.0,0.0,0.0,
1690794337000148,2,1,0,3,31,1.54,1.44,6.08,29.64,-0.0,0.16,0.0,-0.04,0.25,0.0,0.0,5.83,0.41,5.6,33.33,5.56,29.66,7.1,29.64,7.14,33.31,0,0.0,0,6,0x800,100,2218.64,1076.06,2187.35,130.4,90.9,1,2,1,93.195953,1,2,2,2153.439941,1031.397705,1112.854004,2187.351807,1030.612183,1121.513428,2283.843262,1030.466919,1121.246094,-1.0,-1.0,-1.0,-1.0,0,0.0,0.0,1,0,0.0,-0.01,6.08,29.8,6.08,29.8,0.0,-0.01,0.0,0.25,6.1,29.88,6.08,29.64,0.0,-0.01,0.0,0.25,0.006849,0.006849,0.0,0.0,0,0.012433,0.006002,0,0.0,0.0,0.0,
1690794337000148,2,1,1,5,31,1.16,1.45,9.1,37.95,0.0,0.08,-0.01,-1.43,0.23,-0.13,-0.01,4.46,0.38,8.55,38.17,9.68,37.93,10.58,42.11,9.45,42.35,0,0.0,0,9,0x800,100,2290.0,1067.28,2260.78,58.44,71.98,1,2,2,92.296974,1,3,3,2260.777344,1031.883301,1097.044678,2260.780518,1031.291992,1103.27124,2319.218506,1031.167725,1103.499023,-1.0,-1.0,-1.0,-1.0,0,0.0,0.0,1,0,-0.13,-1.38,8.99,37.5,8.99,37.5,-0.13,-1.38,-0.01,0.23,9.07,37.87,9.01,37.96,-0.13,-1.38,-0.01,0.23,0.0,0.0,0.0,0.0,0,0.209992,0.209992,0,0.0,0.0,0.0,
1690794337000148,2,1,1,7,11,1.37,1.58,5.92,42.35,-0.16,0.1,-0.0,-2.96,0.06,-0.13,-0.0,2.91,0.21,5.66,42.48,7.02,42.31,7.55,46.55,6.2,46.72,0,0.0,0,13,0x800,100,2121.55,1068.97,2090.86,62.26,71.06,1,2,2,84.208557,1,3,3,2090.418945,1033.826416,1098.676758,2090.856934,1033.444092,1104.504761,2152.682129,1033.333618,1104.579102,-1.0,-1.0,-1.0,-1.0,0,0.0,0.0,1,0,-0.13,-2.93,5.52,37.04,5.52,37.04,-0.13,-2.93,-0.0,0.06,5.76,38.71,5.92,42.36,-0.13,-2.93,-0.0,0.06,0.0,0.0,0.0,0.0,0,0.124708,0.124708,0,0.0,0.0,0.0,
1690794337000148,2,1,5,9,7,1.43,1.45,33.67,95.38,-0.57,-1.58,0.0,-0.23,0.03,-2.1,0.0,5.79,0.19,33.45,98.8,33.63,95.38,35.06,95.46,34.88,98.87,0,0.0,0,14,0x1800,100,2520.03,1060.95,2519.13,54.4,29.46,1,2,1,99.696037,1,3,3,2492.832031,1045.959229,1074.430176,2519.126465,1046.221069,1075.677734,2547.232422,1046.16394,1075.581543,-1.0,-1.0,-1.0,-1.0,0,0.0,0.0,1,0,-2.1,-0.05,23.44,65.85,23.44,65.85,-2.1,-0.05,0.0,0.03,31.27,88.47,33.37,95.39,-2.1,-0.05,0.0,0.03,0.0,0.0,0.0,0.0,0,-0.00933,-0.00933,0,0.0,0.0,0.0,
1690794337500188,2,1,0,2,46,1.79,1.39,5.1,3.0,-0.02,-0.05,-0.0,-0.94,0.21,-0.07,-0.0,5.05,0.39,6.28,7.21,5.78,2.97,7.55,2.76,8.06,7.0,0,0.0,0,0,0x800,100,4076.34,1298.49,4155.79,1761.81,558.18,1,1,1,96.502029,0,0,0,3195.432129,1028.59082,1329.488403,4155.786133,1019.397705,1577.580688,4957.245117,1017.624756,1591.888428,-1.0,-1.0,-1.0,-1.0,0,0.0,0.0,1,2,-0.07,-0.91,5.1,3.0,5.1,2.99,-0.07,-0.91,-0.0,0.21,5.1,3.0,5.09,2.98,-0.09,-1.02,-0.0,0.22,0.997527,0.997527,0.0,0.0,0,0.118559,0.11829,0,0.0,0.0,0.0,
1690794337500188,2,1,0,0,46,1.64,1.49,0.44,8.55,0.1,0.01,-0.0,-0.06,-0.09,-0.03,-0.0,5.9,0.1,-0.38,8.52,1.26,8.52,1.26,12.79,-0.38,12.79,1,0.92,1,1,0x0,100,1921.3,1133.84,1762.19,318.21,288.73,1,2,2,96.826134,1,1,1,1762.193726,989.471069,1278.203003,1762.193726,989.471069,1278.203003,2080.398926,989.272034,1276.165771,-1.0,-1.0,-1.0,-1.0,0,0.0,0.0,1,2,-0.03,-0.06,0.44,8.59,0.44,8.55,-0.03,-0.06,-0.0,-0.09,0.48,9.45,0.48,9.47,-0.02,-0.06,0.0,-0.1,0.997181,0.997181,7.9e-05,0.024272,1,0.000922,0.0,0,0.0,0.0,0.0,
1690794337500188,2,1,1,8,46,1.79,1.43,10.42,12.75,-0.13,0.57,0.05,-1.41,0.28,0.51,0.05,4.6,0.47,11.06,16.94,11.58,12.7,13.36,12.92,12.84,17.16,0,0.0,0,3,0x1800,100,3291.54,1136.71,3387.92,600.31,191.97,1,2,1,92.345444,0,0,0,2991.379883,1040.619385,1190.316895,3387.917725,1040.721558,1232.694092,3591.691406,1040.323853,1228.62915,-1.0,-1.0,-1.0,-1.0,0,0.0,0.0,1,1,0.51,-1.36,9.62,11.57,9.62,11.57,0.51,-1.36,0.05,0.28,10.59,12.92,10.42,12.75,0.51,-1.36,0.05,0.28,0.0,0.0,0.0,0.0,0,-0.123086,-0.197999,0,0.0,0.0,0.0,
1690794337500188,2,1,1,6,46,1.78,1.69,10.12,21.48,-0.2,-0.1,-0.0,-3.51,0.19,-0.21,-0.0,2.5,0.38,9.95,25.73,9.89,21.49,11.67,21.46,11.73,25.71,0,0.0,0,4,0x800,100,2685.6,1095.53,2672.96,271.68,143.12,1,2,1,95.602242,1,1,1,2549.760742,1026.380493,1147.706055,2672.961914,1023.976013,1167.091553,2821.439941,1023.76178,1166.595825,-1.0,-1.0,-1.0,-1.0,0,0.0,0.0,1,0,-0.21,-3.46,8.84,18.7,8.84,18.7,-0.21,-3.46,-0.0,0.19,10.48,22.49,10.28,21.82,-0.21,-3.46,-0.0,0.19,0.11011,0.11011,0.0,0.0,1,0.013925,-0.021521,0,0.0,0.0,0.0,
1690794337500188,2,1,0,4,46,1.77,1.64,7.51,23.25,-0.28,0.1,-0.0,0.18,0.2,-0.02,-0.0,6.17,0.38,7.14,27.48,7.17,23.26,8.94,23.27,8.91,27.5,0,0.0,0,2,0x800,100,2429.9,1100.98,2402.8,220.52,129.72,1,2,1,95.027267,0,0,0,2319.640625,1036.6521,1147.839355,2402.797852,1036.116455,1165.839233,2540.156982,1035.901245,1165.192871,-1.0,-1.0,-1.0,-1.0,0,0.0,0.0,1,0,-0.02,0.21,6.24,19.02,6.24,19.02,-0.02,0.21,-0.0,0.2,7.61,23.56,7.58,23.5,-0.02,0.21,-0.0,0.2,0.055589,0.055589,0.0,0.0,0,-0.00763,-0.016154,0,0.0,0.0,0.0,
1690794337500188,2,1,0,1,46,1.37,1.45,3.79,29.33,-0.09,-0.0,-0.01,1.48,0.21,-0.15,-0.01,7.46,0.4,3.11,29.43,4.47,29.3,4.89,33.55,3.53,33.68,0,0.0,0,5,0x800,100,2078.29,1083.39,2034.48,87.6,92.38,1,2,2,91.708008,0,0,0,2034.483276,1037.197998,1129.575928,2034.483276,1037.197998,1129.575928,2122.087158,1037.048706,1129.66626,-1.0,-1.0,-1.0,-1.0,0,0.0,0.0,1,0,-0.15,1.5,3.47,26.7,3.47,26.7,-0.15,1.5,-0.01,0.21,3.79,29.39,3.79,29.33,-0.15,1.5,-0.01,0.21,0.0,0.0,0.0,0.0,0,0.09948,0.09948,0,0.0,0.0,0.0,
1690794337500188,2,1,0,3,46,1.78,1.72,7.12,35.18,-0.2,0.16,-0.0,0.23,0.22,-0.02,-0.0,6.23,0.41,6.61,39.46,6.58,35.2,8.36,35.19,8.39,39.45,0,0.0,0,6,0x800,100,2219.69,1075.16,2189.69,130.15,92.15,1,2,1,93.991333,1,3,3,2154.609619,1030.185913,1112.880981,2189.687012,1029.084717,1121.238159,2284.764404,1028.945801,1120.948486,-1.0,-1.0,-1.0,-1.0,0,0.0,0.0,1,0,-0.02,0.27,6.24,30.54,6.24,30.54,-0.02,0.27,-0.0,0.22,7.12,35.07,7.13,35.22,-0.02,0.27,-0.0,0.22,0.007336,0.007336,0.0,0.0,1,0.005922,0.010309,0,0.0,0.0,0.0,
1690794337500188,2,1,1,5,46,1.31,1.45,9.01,37.13,0.07,-0.01,-0.01,-1.46,0.18,-0.2,-0.01,4.54,0.37,8.4,37.38,9.68,37.11,10.57,41.29,9.29,41.56,0,0.0,0,9,0x800,100,2295.2,1065.98,2261.35,67.79,73.43,1,2,2,89.42366,0,0,0,2261.304443,1030.21875,1096.568481,2261.352051,1029.266479,1102.697388,2329.096436,1029.099609,1102.946899,-1.0,-1.0,-1.0,-1.0,0,0.0,0.0,1,0,-0.2,-1.42,8.99,37.06,8.99,37.06,-0.2,-1.42,-0.01,0.18,8.99,37.06,8.97,37.13,-0.2,-1.42,-0.01,0.18,0.0,0.0,0.0,0.0,0,0.211127,0.211127,0,0.0,0.0,0.0,
1690794337500188,2,1,1,7,26,1.4,1.41,5.98,39.75,0.04,0.13,0.0,-4.0,0.03,-0.07,0.0,1.99,0.22,5.15,39.9,6.54,39.73,7.07,43.97,5.68,44.14,0,0.0,0,13,0xC00,100,2115.76,1067.19,2082.23,67.07,67.3,1,2,2,87.289017,1,2,2,2082.226562,1033.542847,1100.84436,2082.226562,1033.542847,1100.84436,2149.296875,1033.416504,1100.906982,-1.0,-1.0,-1.0,-1.0,0,0.0,0.0,1,0,-0.07,-3.97,5.96,40.45,5.96,40.45,-0.07,-3.97,0.0,0.03,6.03,40.95,5.98,39.75,-0.07,-3.97,0.0,0.03,0.0,0.0,0.0,0.0,0,0.124158,0.124158,0,0.0,0.0,0.0,
1690794337500188,2,1,1,9,22,1.84,1.45,17.97,49.81,-0.17,-16.67,0.0,-5.13,-0.0,-16.92,0.0,0.92,0.19,17.89,53.75,17.72,49.82,19.36,49.74,19.54,53.68,0,0.0,0,14,0x1C00,100,2524.77,1068.25,2513.8,104.35,55.47,1,2,1,83.615356,1,3,3,2472.595703,1040.461426,1092.043335,2513.796631,1040.518555,1095.987793,2576.944824,1040.415527,1095.892944,-1.0,-1.0,-1.0,-1.0,0,0.0,0.0,1,0,-16.92,-5.04,12.07,31.7,12.07,31.7,-16.92,-5.04,0.0,-0.0,13.45,35.54,17.99,49.86,-16.92,-5.04,0.0,-0.0,0.003123,0.003123,0.0,0.0,0,0.040795,-0.414976,0,0.0,0.0,0.0,
1690794337500188,2,1,0,10,14,0.6,1.45,17.21,64.7,-0.08,0.42,0.0,2.56,0.0,0.1,0.0,8.61,0.19,16.6,65.42,17.81,64.68,18.12,65.18,16.92,65.93,0,0.0,0,15,0xA00,100,2348.66,1059.18,2366.47,46.21,43.19,1,2,1,74.945412,1,3,3,2325.55542,1037.671265,1080.413696,2366.474609,1037.589844,1080.778564,2371.766846,1037.591919,1080.448486,-1.0,-1.0,-1.0,-1.0,0,0.0,0.0,2,0,0.1,2.65,16.8,63.17,16.8,63.17,0.1,2.65,0.0,0.0,17.72,66.72,17.3,64.7,0.1,2.65,0.0,0.0,0.0,0.0,0.0,0.0,0,-1.013409,-1.001458,0,0.0,0.0,0.0,
1690794337500188,2,1,0,11,36,1.04,1.45,11.45,69.03,-0.37,0.45,-0.0,1.42,0.05,0.1,-0.0,7.44,0.24,10.47,69.25,12.44,68.98,13.01,73.22,11.03,73.48,0,0.0,0,11,0x800,100,2156.66,1066.4,2129.35,57.78,40.62,1,2,2,98.201378,1,3,3,2127.763184,1045.713379,1084.043701,2129.353271,1046.088745,1086.705078,2185.547607,1046.014038,1086.734741,-1.0,-1.0,-1.0,-1.0,0,0.0,0.0,1,0,0.1,1.48,8.83,53.15,8.83,53.15,0.1,1.48,-0.0,0.05,11.33,68.75,11.45,69.03,0.1,1.48,-0.0,0.05,0.0,0.0,0.0,0.0,0,0.152386,0.152386,0,0.0,0.0,0.0,
1690794337999781,2,1,0,2,61,1.79,1.39,5.04,2.33,-0.02,-0.08,-0.0,-0.95,0.37,-0.09,-0.0,5.07,0.37,6.23,6.54,5.72,2.3,7.5,2.09,8.0,6.33,0,0.0,0,0,0x800,100,4363.68,1341.76,4494.63,2146.95,645.58,1,1,1,96.502029,0,0,0,3290.203369,1030.485962,1355.090088,4494.632812,1018.972534,1664.553833,5437.155762,1016.762146,1683.946899,-1.0,-1.0,-1.0,-1.0,0,0.0,0.0,1,2,-0.09,-0.93,5.04,2.33,5.05,2.35,-0.09,-0.93,-0.0,0.37,5.04,2.33,5.05,2.35,-0.1,-0.98,-0.0,0.39,0.997527,0.997527,0.0,0.0,0,0.118492,0.11829,0,0.0,0.0,0.0,
1690794337999781,2,1,0,0,61,1.68,1.5,0.4,8.79,0.1,-0.04,-0.01,0.59,0.61,-0.07,-0.01,6.6,0.61,-0.44,13.09,-0.44,8.82,1.25,8.82,1.25,13.09,1,0.92,1,1,0x0,100,1911.61,1133.54,1753.14,316.93,282.42,1,2,2,95.759621,1,1,1,1753.142822,992.329468,1274.751587,1753.142822,992.329468,1274.751587,2070.07251,992.113159,1272.744873,-1.0,-1.0,-1.0,-1.0,0,0.0,0.0,1,2,-0.07,0.6,0.4,8.84,0.4,8.78,-0.07,0.6,-0.01,0.61,0.43,9.5,0.43,9.46,-0.07,0.63,-0.01,0.64,0.996398,0.996398,0.002406,0.769139,1,0.00087,0.0,0,0.0,0.0,0.0,
1690794337999781,2,1,1,8,61,1.79,1.46,10.84,11.99,-0.15,0.66,0.06,-1.28,0.45,0.61,0.06,4.75,0.45,11.74,16.1,12.64,11.92,14.39,12.29,13.49,16.47,0,0.0,0,3,0x1800,100,3460.1,1145.57,3617.53,685.07,205.27,1,2,1,92.963234,0,0,0,3117.568359,1043.042603,1201.959717,3617.525391,1042.933716,1248.208374,3802.639648,1042.522217,1241.561157,-1.0,-1.0,-1.0,-1.0,0,0.0,0.0,1,1,0.61,-1.25,9.8,10.71,9.8,10.71,0.61,-1.25,0.06,0.45,10.76,11.93,10.84,11.99,0.61,-1.25,0.06,0.45,0.0,0.0,0.0,0.0,0,-0.210928,-0.989413,0,0.0,0.0,0.0,
1690794337999781,2,1,1,6,61,1.75,1.76,10.2,19.91,-0.21,0.09,0.02,-2.81,0.42,0.02,0.02,3.22,0.42,10.14,24.09,10.26,19.9,12.01,19.95,11.9,24.14,0,0.0,0,4,0x800,100,2763.67,1100.52,2765.47,309.65,159.64,1,2,1,96.06575,1,1,1,2608.843018,1024.209839,1158.442993,2765.46582,1020.706299,1180.342651,2918.48877,1020.555725,1179.344116,-1.0,-1.0,-1.0,-1.0,0,0.0,0.0,1,0,0.02,-2.78,8.93,17.13,8.82,16.85,-0.12,-2.91,0.01,0.4,10.46,20.39,10.62,20.85,0.06,-2.74,0.03,0.43,0.235485,0.235485,0.0,0.0,1,-0.02719,-0.027997,0,0.0,0.0,0.0,
1690794337999781,2,1,0,4,61,1.79,1.63,7.39,23.04,-0.29,-0.12,-0.02,0.0,0.34,-0.2,-0.02,6.03,0.34,7.11,27.32,7.2,23.05,8.98,23.09,8.9,27.36,0,0.0,0,2,0x800,100,2435.0,1105.67,2409.7,228.46,129.63,1,2,1,94.271812,0,0,0,2320.773926,1041.125732,1151.923584,2409.699951,1040.850464,1170.483765,2549.231934,1040.618164,1169.706177,-1.0,-1.0,-1.0,-1.0,0,0.0,0.0,1,0,-0.2,0.03,6.21,18.73,6.21,18.73,-0.2,0.03,-0.02,0.34,7.48,22.92,7.46,23.3,-0.2,0.03,-0.02,0.34,0.055222,0.055222,0.0,0.0,1,-0.019179,-0.014881,0,0.0,0.0,0.0,
1690794337999781,2,1,0,1,61,1.35,1.44,3.88,30.51,-0.04,0.04,0.0,2.06,0.45,-0.06,0.0,8.07,0.45,3.18,30.62,4.52,30.48,4.94,34.73,3.6,34.87,0,0.0,0,5,0x800,100,2073.35,1082.3,2031.78,83.14,88.51,1,2,2,90.998703,0,0,0,2031.77832,1038.041626,1126.548584,2031.77832,1038.041626,1126.548584,2114.919434,1037.890503,1126.611206,-1.0,-1.0,-1.0,-1.0,0,0.0,0.0,1,0,-0.06,2.07,3.64,28.76,3.64,28.76,-0.06,2.07,0.0,0.45,3.88,30.77,3.88,30.52,-0.06,2.07,0.0,0.45,0.006072,0.006072,0.0,0.0,0,0.098354,0.098354,0,0.0,0.0,0.0,
1690794337999781,2,1,0,3,61,1.8,1.68,7.02,34.48,-0.14,-0.03,-0.01,-0.28,0.34,-0.15,-0.01,5.74,0.34,6.5,38.79,6.44,34.5,8.24,34.47,8.3,38.77,0,0.0,0,6,0x800,100,2220.7,1076.06,2188.89,132.2,92.06,1,2,1,93.698051,1,3,3,2154.601562,1031.351318,1113.726929,2188.888428,1030.026123,1122.089355,2286.799072,1029.876099,1121.818726,-1.0,-1.0,-1.0,-1.0,0,0.0,0.0,1,0,-0.15,-0.26,6.42,31.35,6.42,31.35,-0.15,-0.26,-0.01,0.34,7.04,34.58,7.02,34.5,-0.15,-0.26,-0.01,0.34,0.0073,0.0073,0.0,0.0,1,0.013488,0.008854,0,0.0,0.0,0.0,
1690794337999781,2,1,1,9,37,1.84,1.45,13.82,34.85,-0.15,-10.86,0.0,-7.18,0.19,-10.98,0.0,-1.13,0.19,13.75,38.8,13.57,34.87,15.21,34.79,15.4,38.72,0,0.0,0,14,0x1800,100,2580.11,1082.07,2566.12,149.86,78.04,1,2,1,89.643288,0,0,0,2505.180908,1043.000122,1113.556885,2566.115479,1043.050415,1121.08667,2655.039551,1042.900391,1120.960815,-1.0,-1.0,-1.0,-1.0,0,0.0,0.0,1,0,-10.98,-7.13,12.91,32.47,12.91,32.47,-10.98,-7.13,0.0,0.19,14.21,35.92,13.83,34.86,-10.98,-7.13,0.0,0.19,0.002985,0.002985,0.0,0.0,0,0.043039,0.222639,0,0.0,0.0,0.0,
1690794337999781,2,1,1,5,61,1.36,1.6,8.93,36.31,0.05,-0.12,-0.02,-1.42,0.35,-0.24,-0.02,4.61,0.35,8.8,39.55,8.36,36.33,9.71,36.15,10.15,39.36,0,0.0,0,9,0x800,100,2300.85,1066.65,2271.35,84.49,83.08,1,2,1,85.59716,1,2,2,2258.605957,1026.434082,1103.072266,2271.349121,1025.109131,1108.186646,2343.09375,1024.931152,1108.288086,-1.0,-1.0,-1.0,-1.0,0,0.0,0.0,1,0,-0.24,-1.39,8.88,36.14,8.88,36.14,-0.24,-1.39,-0.02,0.35,8.88,36.14,8.94,36.31,-0.24,-1.39,-0.02,0.35,0.0,0.0,0.0,0.0,0,0.130791,0.130791,0,0.0,0.0,0.0,
1690794337999781,2,1,1,7,41,1.56,1.45,5.86,39.96,0.07,-0.08,-0.01,-2.1,0.26,-0.22,-0.01,3.92,0.26,4.99,40.11,6.54,39.93,7.04,44.17,5.49,44.35,0,0.0,0,13,0x800,100,2110.47,1067.35,2073.12,74.69,69.02,1,2,2,88.06945,1,3,3,2073.120117,1032.835815,1101.860107,2073.120117,1032.835815,1101.860107,2147.813477,1032.681763,1101.907715,-1.0,-1.0,-1.0,-1.0,0,0.0,0.0,1,0,-0.22,-2.08,6.01,41.79,6.01,41.79,-0.22,-2.08,-0.01,0.26,5.74,39.89,5.86,39.95,-0.22,-2.08,-0.01,0.26,0.0,0.0,0.0,0.0,0,0.118627,0.118627,0,0.0,0.0,0.0,
1690794337999781,2,1,5,12,6,2.14,1.48,13.97,40.69,0.05,0.06,-0.0,-1.88,-0.0,-0.08,-0.0,4.17,-0.0,14.2,45.69,12.98,40.73,15.06,40.22,16.28,45.18,0,0.0,0,17,0x800,100,2485.48,1066.59,2439.89,116.05,69.03,1,2,1,81.405273,1,3,3,2427.45459,1033.092041,1094.924561,2439.885742,1032.071899,1101.105225,2543.503662,1031.801147,1101.521484,-1.0,-1.0,-1.0,-1.0,0,0.0,0.0,1,0,-0.08,-1.83,13.59,39.57,13.59,39.57,-0.08,-1.83,-0.0,-0.0,12.34,35.76,13.34,40.71,-0.08,-1.83,-0.0,-0.0,0.0,0.0,0.0,0.0,0,0.244687,0.244687,0,0.0,0.0,0.0,
1690794337999781,2,1,0,11,51,1.18,1.45,11.63,70.76,-0.26,0.31,-0.01,2.8,0.34,0.06,-0.01,8.84,0.34,10.65,70.98,12.62,70.71,13.2,74.94,11.22,75.21,0,0.0,0,11,0x800,100,2154.18,1065.7,2127.34,56.05,39.65,1,2,2,98.746002,1,3,3,2126.149414,1045.670776,1083.143188,2127.343262,1045.870972,1085.524536,2182.202393,1045.787598,1085.543091,-1.0,-1.0,-1.0,-1.0,0,0.0,0.0,1,0,0.06,2.84,9.42,56.51,9.42,56.51,0.06,2.84,-0.01,0.34,11.32,68.27,11.63,70.76,0.06,2.84,-0.01,0.34,0.0,0.0,0.0,0.0,0,0.152175,0.152175,0,0.0,0.0,0.0,
1690794337999781,2,1,0,10,29,0.66,1.45,19.33,71.54,0.02,1.24,0.05,8.43,0.23,0.99,0.05,14.49,0.23,18.66,72.32,20.0,71.51,20.34,72.07,19.01,72.88,0,0.0,0,15,0x1E00,100,2358.11,1057.56,2376.22,46.24,39.16,1,2,1,87.726662,1,3,3,2334.99292,1038.095093,1076.853149,2376.221191,1037.986938,1077.142334,2381.230957,1038.007568,1076.860962,-1.0,-1.0,-1.0,-1.0,0,0.0,0.0,2,0,0.99,8.49,21.67,80.43,21.67,80.43,0.99,8.49,0.05,0.23,22.35,83.03,19.58,71.53,0.99,8.49,0.05,0.23,0.0,0.0,0.0,0.0,0,-1.024462,-0.80159,0,0.0,0.0,0.0,
1690794338499852,2,1,0,2,76,1.79,1.39,5.01,1.87,-0.02,-0.08,-0.0,-0.82,0.36,-0.09,-0.0,5.25,0.36,6.19,6.08,5.69,1.84,7.46,1.63,7.97,5.87,0,0.0,0,0,0x800,100,4618.52,1377.34,4799.02,2507.03,724.07,1,1,1,96.502029,0,0,0,3365.009277,1028.925049,1372.235352,4799.019531,1015.307556,1739.382324,5872.037109,1012.736572,1764.100586,-1.0,-1.0,-1.0,-1.0,0,0.0,0.0,1,2,-0.09,-0.81,5.01,1.87,5.01,1.86,-0.09,-0.81,-0.0,0.36,5.01,1.87,5.01,1.86,-0.1,-0.83,-0.0,0.38,0.997527,0.997527,0.0,0.0,0,0.11843,0.11829,0,0.0,0.0,0.0,
1690794338499852,2,1,0,0,76,1.74,1.55,0.39,9.21,0.1,-0.03,-0.0,-0.14,-0.09,-0.06,-0.0,5.92,-0.09,-0.48,13.51,-0.48,9.24,1.26,9.24,1.26,13.51,1,0.92,1,1,0x0,100,1906.9,1124.2,1749.18,315.45,282.43,1,2,2,95.283821,1,1,1,1749.179688,982.992004,1265.417236,1749.179688,982.992004,1265.417236,2064.627197,982.835327,1263.478882,-1.0,-1.0,-1.0,-1.0,0,0.0,0.0,1,2,-0.06,-0.14,0.39,9.13,0.39,9.2,-0.06,-0.14,-0.0,-0.09,0.4,9.55,0.4,9.56,-0.08,-0.14,-0.01,-0.1,0.996398,0.996398,-0.000373,-0.122496,1,0.000548,0.0,0,0.0,0.0,0.0,
1690794338499852,2,1,1,8,76,1.79,1.48,10.53,10.08,-0.14,0.14,-0.01,-2.1,0.27,0.11,-0.01,3.99,0.27,11.99,14.16,12.89,9.99,14.64,10.36,13.75,14.53,0,0.0,0,3,0x800,100,3718.86,1157.02,3937.09,841.05,241.67,1,1,1,90.439751,0,0,0,3298.336914,1037.770508,1218.466553,3937.092041,1036.181885,1277.851929,4139.387695,1035.916016,1269.165527,-1.0,-1.0,-1.0,-1.0,0,0.0,0.0,1,1,0.11,-2.07,10.53,10.08,10.53,10.08,0.11,-2.07,-0.01,0.27,10.53,10.08,10.53,10.19,0.11,-2.07,-0.01,0.27,0.0,0.0,0.0,0.0,0,-0.210033,-0.210203,0,0.0,0.0,0.0,
1690794338499852,2,1,1,6,76,1.7,1.67,9.62,17.07,-0.15,-0.24,-0.02,-3.3,0.32,-0.29,-0.02,2.78,0.32,9.72,21.13,9.84,17.06,11.55,17.12,11.42,21.18,0,0.0,0,4,0x800,100,2850.65,1106.24,2860.43,359.1,174.02,1,2,1,95.14138,1,1,1,2671.100098,1023.167358,1166.839844,2860.428711,1019.227417,1193.242798,3030.204102,1019.072449,1192.007202,-1.0,-1.0,-1.0,-1.0,0,0.0,0.0,1,1,-0.29,-3.27,8.87,15.38,8.87,15.5,-0.1,-2.67,0.01,0.39,10.19,17.92,10.13,18.15,-0.42,-3.68,-0.04,0.26,0.405027,0.405027,0.0,0.0,1,-0.030455,-0.024071,0,0.0,0.0,0.0,
1690794338499852,2,1,0,4,76,1.79,1.63,7.61,23.32,-0.26,0.09,0.01,0.36,0.37,0.02,0.01,6.43,0.37,7.18,27.61,7.32,23.33,9.11,23.39,8.97,27.66,0,0.0,0,2,0x800,100,2435.3,1101.65,2412.8,229.67,128.18,1,2,1,95.494247,0,0,0,2320.466064,1038.179077,1147.917114,2412.79834,1037.557373,1165.736938,2550.136475,1037.343994,1164.871826,-1.0,-1.0,-1.0,-1.0,0,0.0,0.0,1,0,0.02,0.38,6.4,19.35,6.4,19.35,0.02,0.38,0.01,0.37,7.62,23.39,7.67,23.54,0.02,0.38,0.01,0.37,0.051275,0.051275,0.0,0.0,1,-0.032433,-0.034699,0,0.0,0.0,0.0,
1690794338499852,2,1,1,12,21,1.82,1.8,11.09,30.92,-0.2,-0.21,-0.01,-3.9,-0.01,-0.31,-0.01,2.19,-0.01,10.72,35.1,10.55,30.94,12.37,30.86,12.54,35.03,0,0.0,0,17,0xC00,100,2497.35,1078.7,2473.54,172.06,108.59,1,2,1,91.452003,0,0,0,2411.314697,1026.328735,1122.777588,2473.541992,1024.404175,1132.996582,2583.376465,1024.219971,1132.814941,-1.0,-1.0,-1.0,-1.0,0,0.0,0.0,1,0,-0.31,-3.86,9.87,26.9,9.87,26.9,-0.31,-3.86,-0.01,-0.01,10.95,30.05,11.09,30.92,-0.31,-3.86,-0.01,-0.01,0.0,0.0,0.0,0.0,0,0.04056,0.040017,0,0.0,0.0,0.0,
1690794338499852,2,1,0,1,76,1.44,1.44,3.89,32.03,-0.03,0.04,0.0,2.63,0.5,-0.06,0.0,8.7,0.5,3.15,32.14,4.58,32.0,4.97,36.26,3.54,36.39,0,0.0,0,5,0x800,100,2063.4,1079.05,2021.08,84.65,84.47,1,2,2,90.140114,1,3,3,2021.076294,1036.814575,1121.28186,2021.076294,1036.814575,1121.28186,2105.725342,1036.662476,1121.318604,-1.0,-1.0,-1.0,-1.0,0,0.0,0.0,1,0,-0.06,2.65,3.69,30.5,3.69,30.5,-0.06,2.65,0.0,0.5,3.9,32.33,3.89,32.03,-0.06,2.65,0.0,0.5,0.0,0.0,0.0,0.0,0,0.093064,0.093064,0,0.0,0.0,0.0,
1690794338499852,2,1,1,9,52,1.83,1.49,12.95,33.54,-0.16,-5.92,0.0,-6.79,0.19,-6.03,0.0,-0.69,0.19,12.8,37.83,12.63,33.56,14.46,33.48,14.63,37.75,0,0.0,0,14,0x1800,100,2559.08,1081.73,2541.38,168.78,83.35,1,2,1,90.681831,0,0,0,2474.688477,1040.224976,1114.685059,2541.378662,1040.055664,1123.405396,2643.465332,1039.884766,1123.233887,-1.0,-1.0,-1.0,-1.0,0,0.0,0.0,1,0,-6.03,-6.75,12.11,29.39,12.11,29.39,-6.03,-6.75,0.0,0.19,13.36,32.6,13.15,32.04,-6.03,-6.75,0.0,0.19,0.004459,0.004459,0.0,0.0,0,0.043792,0.352403,0,0.0,0.0,0.0,
1690794338499852,2,1,0,3,76,1.79,1.7,7.04,34.79,-0.15,-0.01,-0.01,0.22,0.39,-0.12,-0.01,6.3,0.39,6.5,39.09,6.49,34.81,8.29,34.81,8.3,39.09,0,0.0,0,6,0x800,100,2218.89,1075.06,2188.76,132.85,92.33,1,2,1,93.778297,1,2,2,2152.470459,1030.230225,1112.948364,2188.761719,1028.890869,1121.2229,2285.318604,1028.751831,1120.913208,-1.0,-1.0,-1.0,-1.0,0,0.0,0.0,1,0,-0.12,0.25,6.38,31.33,6.38,31.33,-0.12,0.25,-0.01,0.39,7.02,34.62,7.05,34.82,-0.12,0.25,-0.01,0.39,0.007409,0.007409,0.0,0.0,1,0.002082,0.003726,0,0.0,0.0,0.0,
1690794338499852,2,1,1,5,76,1.5,1.55,8.91,35.7,0.12,-0.1,-0.01,-1.2,0.36,-0.21,-0.01,4.89,0.36,8.75,39.28,8.32,35.72,9.8,35.54,10.24,39.1,0,0.0,0,9,0x800,100,2307.53,1063.77,2275.79,97.4,82.07,1,2,1,89.956345,1,1,1,2258.828369,1024.341675,1099.32373,2275.789307,1022.734924,1104.801025,2356.229004,1022.541016,1104.872437,-1.0,-1.0,-1.0,-1.0,0,0.0,0.0,1,0,-0.21,-1.17,8.89,35.62,8.89,35.62,-0.21,-1.17,-0.01,0.36,8.89,35.62,8.92,35.7,-0.21,-1.17,-0.01,0.36,0.0,0.0,0.0,0.0,0,0.106044,0.106044,0,0.0,0.0,0.0,
1690794338499852,2,1,1,7,56,1.46,1.44,5.69,39.25,0.07,-0.16,-0.02,-1.68,0.29,-0.28,-0.02,4.39,0.29,5.09,42.74,4.95,39.28,6.41,39.22,6.55,42.68,0,0.0,0,13,0x800,100,2105.39,1067.21,2076.19,82.9,69.98,1,2,1,90.723,1,3,3,2063.943115,1032.945557,1097.50769,2076.189697,1032.216797,1102.195068,2146.84668,1032.098267,1102.078369,-1.0,-1.0,-1.0,-1.0,0,0.0,0.0,1,0,-0.28,-1.66,5.91,41.01,5.91,41.01,-0.28,-1.66,-0.02,0.29,5.69,39.44,5.69,39.25,-0.28,-1.66,-0.02,0.29,0.0,0.0,0.0,0.0,0,0.040924,0.119666,0,0.0,0.0,0.0,
1690794338499852,2,1,0,11,66,1.17,1.45,11.69,70.8,-0.3,0.26,-0.01,1.73,0.19,0.04,-0.01,7.82,0.19,10.72,71.02,12.69,70.75,13.27,74.98,11.3,75.25,0,0.0,0,11,0x800,100,2155.85,1065.79,2129.0,55.96,39.63,1,2,2,67.981674,1,1,1,2127.877441,1045.721069,1083.171997,2129.000244,1045.976685,1085.605957,2183.832764,1045.896973,1085.629639,-1.0,-1.0,-1.0,-1.0,0,0.0,0.0,2,0,0.04,1.76,9.79,59.02,9.79,59.02,0.04,1.76,-0.01,0.19,10.99,66.46,11.69,70.8,0.04,1.76,-0.01,0.19,0.0,0.0,0.0,0.0,0,0.15291,0.151728,0,0.0,0.0,0.0,
1690794339000218,2,1,0,2,91,1.79,1.39,4.98,1.47,-0.02,-0.08,-0.0,-0.58,0.76,-0.08,-0.0,5.36,0.36,6.16,5.69,5.66,1.45,7.43,1.23,7.94,5.47,0,0.0,0,0,0xA00,100,4882.99,1413.23,5117.77,2896.64,806.26,1,1,1,96.502029,0,0,0,3434.66748,1025.943237,1386.669312,5117.772461,1010.101562,1816.364014,6331.30957,1007.165466,1847.415527,-1.0,-1.0,-1.0,-1.0,0,0.0,0.0,1,2,-0.08,-0.57,4.98,1.47,4.97,1.46,-0.08,-0.57,-0.0,0.76,4.98,1.47,4.97,1.46,-0.08,-0.57,0.0,0.79,0.997527,0.997527,0.0,0.0,0,0.118323,0.11829,0,0.0,0.0,0.0,
1690794339000218,2,1,1,8,91,1.79,1.48,10.61,8.49,-0.14,0.14,-0.01,-2.49,0.56,0.13,-0.01,3.47,0.16,12.08,12.57,12.97,8.4,14.72,8.77,13.83,12.95,0,0.0,0,3,0x800,100,3973.84,1171.74,4263.92,1016.26,277.44,1,1,1,90.439751,1,1,1,3465.708252,1034.982056,1234.947876,4263.922852,1033.025879,1310.462036,4481.970215,1032.766602,1299.161621,-1.0,-1.0,-1.0,-1.0,0,0.0,0.0,1,1,0.13,-2.47,10.61,8.49,10.61,8.49,0.13,-2.47,-0.01,0.56,10.61,8.49,10.62,8.44,0.13,-2.47,-0.01,0.56,0.0,0.0,0.0,0.0,0,-0.210121,-0.210203,0,0.0,0.0,0.0,
1690794339000218,2,1,0,0,91,1.76,1.51,0.34,9.22,0.1,-0.07,-0.01,0.03,0.42,-0.09,-0.01,5.96,0.01,-0.54,13.53,-0.54,9.26,1.22,9.26,1.22,13.53,1,0.92,1,1,0x0,100,1897.35,1124.31,1738.24,318.23,273.96,1,2,2,95.926895,0,0,0,1738.237671,987.329285,1261.293213,1738.237671,987.329285,1261.293213,2056.468018,987.143799,1259.364502,-1.0,-1.0,-1.0,-1.0,0,0.0,0.0,1,1,-0.09,0.03,0.34,9.32,0.34,9.22,-0.09,0.03,-0.01,0.42,0.34,9.45,0.35,9.51,-0.1,0.02,-0.01,0.4,0.994249,0.994249,0.000346,0.115066,1,0.000274,0.0,0,0.0,0.0,0.0,
1690794339000218,2,1,1,6,91,1.59,1.62,9.06,13.96,-0.06,-0.21,-0.01,-3.44,0.71,-0.24,-0.01,2.51,0.31,9.15,17.76,9.23,13.96,10.82,13.99,10.74,17.79,0,0.0,0,4,0x800,100,2963.95,1109.3,2982.59,416.86,201.38,1,2,1,95.31443,1,3,3,2755.517334,1014.476379,1177.42334,2982.587402,1008.611084,1209.995728,3172.378174,1008.476501,1208.646606,-1.0,-1.0,-1.0,-1.0,0,0.0,0.0,1,1,-0.24,-3.42,8.76,13.41,8.72,13.38,-0.21,-3.25,-0.0,0.75,10.05,15.66,10.1,15.77,-0.31,-3.97,-0.02,0.58,0.756268,0.756268,0.0,0.0,1,-0.021267,-0.003409,0,0.0,0.0,0.0,
1690794339000218,2,1,0,4,91,1.78,1.61,7.21,22.23,-0.21,-0.3,-0.05,-0.47,0.59,-0.34,-0.05,5.48,0.18,6.84,26.5,6.97,22.24,8.75,22.29,8.62,26.55,0,0.0,0,2,0x800,100,2434.44,1098.03,2409.98,237.46,132.89,1,2,1,96.039841,0,0,0,2315.71167,1032.752808,1145.846924,2409.984375,1031.582764,1164.474854,2553.172363,1031.384644,1163.602783,-1.0,-1.0,-1.0,-1.0,0,0.0,0.0,1,0,-0.34,-0.45,6.34,19.16,6.34,19.16,-0.34,-0.45,-0.05,0.59,7.3,22.35,7.27,22.45,-0.34,-0.45,-0.05,0.59,0.065537,0.065537,0.0,0.0,1,-0.029355,-0.030429,0,0.0,0.0,0.0,
1690794339000218,2,1,1,10,11,1.79,1.49,13.78,27.72,-0.19,0.01,-0.0,-1.76,0.34,-0.04,-0.0,4.19,-0.06,13.7,29.39,12.98,27.75,14.7,27.0,15.42,28.63,0,0.0,0,20,0x800,100,2769.45,1089.32,2700.76,137.38,99.31,1,1,1,92.366119,0,0,0,2700.763184,1039.666504,1138.973267,2700.763184,1039.666504,1138.973267,2838.138916,1039.483154,1141.111694,-1.0,-1.0,-1.0,-1.0,0,0.0,0.0,1,0,-0.04,-1.74,12.43,24.36,12.43,24.36,-0.04,-1.74,-0.0,0.34,13.63,26.9,13.78,27.73,-0.04,-1.74,-0.0,0.34,0.0,0.0,0.0,0.0,0,-1.156571,-1.156571,0,0.0,0.0,0.0,
1690794339000218,2,1,1,12,36,1.69,1.74,10.87,28.45,-0.13,-0.29,-0.01,-4.23,0.4,-0.35,-0.01,1.72,-0.01,10.4,32.35,10.24,28.47,11.93,28.41,12.09,32.29,0,0.0,0,17,0x800,100,2526.42,1076.63,2504.35,176.27,113.32,1,2,1,93.226852,1,3,3,2438.285156,1022.132019,1122.70874,2504.354004,1019.970215,1133.290527,2614.556885,1019.790771,1133.113037,-1.0,-1.0,-1.0,-1.0,0,0.0,0.0,1,0,-0.35,-4.21,9.95,26.05,9.95,26.05,-0.35,-4.21,-0.01,0.4,10.89,28.7,10.87,28.45,-0.35,-4.21,-0.01,0.4,0.0,0.0,0.0,0.0,0,0.040459,0.040015,0,0.0,0.0,0.0,
1690794339000218,2,1,1,9,67,1.75,1.47,14.07,33.4,-0.15,-2.36,0.0,-4.91,0.59,-2.43,0.0,1.05,0.19,13.04,37.6,12.85,33.45,14.6,33.37,14.78,37.52,0,0.0,0,14,0x1800,100,2571.72,1079.77,2555.47,163.73,82.31,1,2,1,90.209328,0,0,0,2489.85791,1038.678955,1112.410889,2555.473389,1038.617065,1120.92749,2653.583008,1038.457642,1120.787109,-1.0,-1.0,-1.0,-1.0,0,0.0,0.0,1,0,-2.43,-4.88,12.49,29.39,12.49,29.39,-2.43,-4.88,0.0,0.59,13.9,32.91,14.07,33.42,-2.43,-4.88,0.0,0.59,0.004267,0.004267,0.0,0.0,0,0.044886,0.369001,0,0.0,0.0,0.0,
1690794339000218,2,1,0,1,91,1.39,1.41,4.08,34.27,-0.03,0.18,0.03,3.72,1.03,0.12,0.03,9.66,0.62,3.28,34.37,4.67,34.25,5.06,38.5,3.67,38.63,0,0.0,0,5,0x800,100,2055.53,1074.76,2017.15,76.75,77.91,1,2,2,88.602654,1,2,2,2017.153198,1035.808716,1113.720581,2017.153198,1035.808716,1113.720581,2093.904785,1035.67749,1113.743286,-1.0,-1.0,-1.0,-1.0,0,0.0,0.0,1,0,0.12,3.73,3.82,32.79,3.82,32.79,0.12,3.73,0.03,1.03,4.09,35.21,4.09,34.27,0.12,3.73,0.03,1.03,0.003381,0.003381,0.0,0.0,0,0.091698,0.091698,0,0.0,0.0,0.0,
1690794339000218,2,1,1,5,91,1.27,1.47,8.8,34.73,0.18,-0.58,-0.08,-1.81,0.61,-0.64,-0.08,4.14,0.2,8.62,37.76,8.36,34.75,9.63,34.64,9.88,37.65,0,0.0,0,9,0x1800,100,2313.83,1060.85,2290.01,90.82,79.91,1,2,1,91.715446,1,1,1,2268.421875,1022.270142,1096.134521,2290.006836,1020.895142,1100.807861,2359.241211,1020.755676,1100.789795,-1.0,-1.0,-1.0,-1.0,0,0.0,0.0,1,0,-0.64,-1.79,9.92,39.4,9.92,39.4,-0.64,-1.79,-0.08,0.61,8.2,32.25,8.42,34.24,-0.64,-1.79,-0.08,0.61,0.0,0.0,0.0,0.0,0,0.074982,0.074982,0,0.0,0.0,0.0,
1690794339000218,2,1,0,3,91,1.81,1.82,7.16,35.85,-0.23,0.04,0.01,1.23,0.91,-0.02,0.01,7.18,0.5,6.58,40.19,6.64,35.87,8.45,35.9,8.39,40.22,0,0.0,0,6,0x800,100,2214.31,1072.93,2186.57,133.11,96.19,1,2,1,93.891289,1,3,3,2147.753906,1026.325073,1112.683472,2186.572266,1024.838257,1121.028687,2280.867676,1024.721191,1120.661133,-1.0,-1.0,-1.0,-1.0,0,0.0,0.0,1,0,-0.02,1.25,6.13,30.43,6.13,30.43,-0.02,1.25,0.01,0.91,7.15,35.79,7.17,35.9,-0.02,1.25,0.01,0.91,0.009157,0.009157,0.0,0.0,1,-0.014595,-0.020441,0,0.0,0.0,0.0,
1690794339000218,2,1,0,7,71,1.46,1.45,5.78,39.69,0.12,-0.1,-0.0,-0.53,0.8,-0.17,-0.0,5.41,0.4,5.23,43.18,5.09,39.72,6.55,39.66,6.7,43.11,0,0.0,0,13,0x800,100,2109.13,1062.17,2080.15,82.56,69.54,1,2,1,91.7967,1,2,2,2067.850342,1028.30896,1092.516235,2080.145752,1027.403564,1096.94458,2150.40918,1027.288452,1096.83374,-1.0,-1.0,-1.0,-1.0,0,0.0,0.0,1,0,-0.17,-0.52,5.76,39.53,5.76,39.53,-0.17,-0.52,-0.0,0.8,5.76,39.53,5.78,39.69,-0.17,-0.52,-0.0,0.8,0.0,0.0,0.0,0.0,0,0.042018,0.120568,0,0.0,0.0,0.0,
1690794339000218,2,1,0,11,81,1.17,1.45,11.75,71.7,-0.3,0.14,-0.01,1.92,0.6,0.0,-0.01,7.87,0.19,10.78,71.92,12.75,71.65,13.34,75.88,11.36,76.16,0,0.0,0,11,0x800,100,2153.68,1063.08,2127.05,55.04,39.14,1,2,2,67.683357,1,1,1,2126.162354,1043.264526,1080.277344,2127.046875,1043.514404,1082.653442,2181.199219,1043.438354,1082.679321,-1.0,-1.0,-1.0,-1.0,0,0.0,0.0,2,0,0.0,1.94,13.57,83.17,13.57,83.17,0.0,1.94,-0.01,0.6,12.61,77.21,11.75,71.7,0.0,1.94,-0.01,0.6,0.0,0.0,0.0,0.0,0,0.154004,0.149781,0,0.0,0.0,0.0,
1690794339499994,2,1,0,2,106,1.79,1.39,4.94,1.04,-0.02,-0.07,0.0,-0.47,0.41,-0.08,0.0,5.4,0.32,6.13,5.25,5.62,1.01,7.4,0.8,7.9,5.04,0,0.0,0,0,0xA00,100,5255.25,1470.17,5569.83,3468.21,922.81,1,1,1,96.502029,0,0,0,3521.145508,1028.037964,1410.395264,5569.833496,1008.760986,1931.573242,6989.352539,1005.113037,1972.712402,-1.0,-1.0,-1.0,-1.0,0,0.0,0.0,1,2,-0.08,-0.46,4.94,1.04,4.94,1.04,-0.08,-0.46,0.0,0.41,4.94,1.04,4.94,1.04,-0.08,-0.45,0.0,0.44,0.997527,0.997527,0.0,0.0,0,0.118284,0.11829,0,0.0,0.0,0.0,
1690794339499994,2,1,1,8,106,1.79,1.48,10.64,7.92,-0.14,0.1,-0.01,-1.74,0.36,0.09,-0.01,4.13,0.27,12.11,12.0,13.0,7.83,14.75,8.2,13.86,12.38,0,0.0,0,3,0x800,100,4082.77,1182.04,4406.64,1095.45,293.1,1,1,1,90.439751,1,1,1,3535.04834,1037.674438,1245.660767,4406.642578,1035.484131,1328.588135,4630.49707,1035.212891,1316.022095,-1.0,-1.0,-1.0,-1.0,0,0.0,0.0,1,1,0.09,-1.73,10.64,7.92,10.64,7.92,0.09,-1.73,-0.01,0.36,10.64,7.92,10.65,7.85,0.09,-1.73,-0.01,0.36,0.0,0.0,0.0,0.0,0,-0.210163,-0.210203,0,0.0,0.0,0.0,
1690794339499994,2,1,0,0,106,1.74,1.6,0.29,9.64,0.01,-0.09,-0.01,0.41,0.27,-0.1,-0.01,6.27,0.18,-0.57,13.95,-0.57,9.67,1.17,9.67,1.17,13.95,1,0.92,1,1,0x0,100,1887.77,1133.98,1735.76,304.01,279.22,1,2,2,95.76754,0,0,0,1735.761719,994.370056,1273.594482,1735.761719,994.370056,1273.594482,2039.77063,994.150452,1271.677246,-1.0,-1.0,-1.0,-1.0,0,0.0,0.0,1,1,-0.1,0.41,0.3,9.7,0.29,9.64,-0.1,0.41,-0.01,0.27,0.3,9.98,0.3,9.92,-0.11,0.42,-0.01,0.27,0.995686,0.995686,0.001719,0.578734,1,3.5e-05,0.0,0,0.0,0.0,0.0,
1690794339499994,2,1,1,6,106,1.69,1.6,9.02,12.25,-0.05,-0.05,0.01,-2.88,0.42,-0.06,0.01,2.99,0.33,9.2,16.28,9.35,12.24,11.05,12.3,10.9,16.34,0,0.0,0,4,0x800,100,3097.09,1120.47,3136.9,523.04,221.89,1,2,1,95.552711,1,1,1,2835.574707,1016.715088,1190.003296,3136.899902,1009.523376,1231.418335,3358.614258,1009.424316,1229.326416,-1.0,-1.0,-1.0,-1.0,0,0.0,0.0,1,1,-0.06,-2.87,8.83,11.89,8.93,12.12,-0.03,-2.74,0.01,0.45,9.6,13.08,9.86,13.54,-0.42,-4.08,-0.04,0.19,0.905939,0.905939,0.0,0.0,1,-0.036922,-0.039623,0,0.0,0.0,0.0,
1690794339499994,2,1,0,4,106,1.76,1.63,7.31,22.61,-0.23,-0.1,-0.01,0.23,0.37,-0.13,-0.01,6.1,0.27,6.85,26.82,6.99,22.62,8.75,22.68,8.6,26.88,0,0.0,0,2,0x800,100,2426.3,1100.84,2403.01,230.86,132.53,1,2,1,95.830421,0,0,0,2310.874756,1035.716064,1149.010986,2403.010986,1034.576538,1167.103516,2541.731201,1034.378418,1166.21106,-1.0,-1.0,-1.0,-1.0,0,0.0,0.0,1,0,-0.13,0.24,6.27,19.22,6.27,19.22,-0.13,0.24,-0.01,0.37,7.43,23.14,7.38,22.85,-0.13,0.24,-0.01,0.37,0.064347,0.064347,0.0,0.0,1,-0.033873,-0.036346,0,0.0,0.0,0.0,
1690794339499994,2,1,1,10,26,1.79,1.46,13.23,25.17,-0.15,-0.28,-0.02,-3.59,0.01,-0.32,-0.02,2.28,-0.08,13.99,29.4,14.12,25.13,15.91,25.19,15.78,29.46,0,0.0,0,20,0xC00,100,2853.68,1095.25,2864.46,271.51,106.18,1,2,1,90.615601,0,0,0,2717.927979,1042.19397,1134.10791,2864.463867,1042.156372,1148.336914,2989.43335,1041.938599,1147.629272,-1.0,-1.0,-1.0,-1.0,0,0.0,0.0,1,0,-0.32,-3.57,12.08,22.72,12.08,22.72,-0.32,-3.57,-0.02,0.01,13.21,25.03,13.25,25.21,-0.32,-3.57,-0.02,0.01,0.015759,0.015759,0.0,0.0,0,-0.031052,0.005225,0,0.0,0.0,0.0,
1690794339499994,2,1,1,12,51,1.63,1.72,11.17,27.99,-0.14,0.05,0.02,-2.73,0.18,0.01,0.02,3.14,0.08,10.77,31.75,10.62,28.01,12.25,27.94,12.4,31.69,0,0.0,0,17,0x800,100,2559.35,1081.04,2539.78,176.79,113.73,1,2,1,94.345184,1,3,3,2470.957275,1026.158813,1127.33252,2539.782471,1024.172485,1137.903076,2647.743896,1023.990417,1137.72168,-1.0,-1.0,-1.0,-1.0,0,0.0,0.0,1,0,0.01,-2.72,10.13,25.55,10.13,25.55,0.01,-2.72,0.02,0.18,11.25,28.57,11.19,28.04,0.01,-2.72,0.02,0.18,0.023814,0.023814,0.0,0.0,0,0.040243,0.04002,0,0.0,0.0,0.0,
1690794339499994,2,1,1,5,106,1.16,1.45,8.09,31.53,0.19,-0.7,-0.09,-3.05,0.03,-0.74,-0.09,2.81,-0.06,7.83,34.32,7.8,31.54,8.97,31.53,8.99,34.31,0,0.0,0,9,0x1800,100,2317.64,1065.92,2300.24,102.63,86.22,1,2,1,91.03862,0,0,0,2266.319824,1024.292236,1103.931763,2300.23999,1022.806335,1109.027832,2368.952881,1022.709961,1108.841431,-1.0,-1.0,-1.0,-1.0,0,0.0,0.0,1,0,-0.74,-3.04,9.45,37.15,9.45,37.15,-0.74,-3.04,-0.09,0.03,7.95,30.98,8.03,31.53,-0.74,-3.04,-0.09,0.03,0.0,0.0,0.0,0.0,0,0.002661,0.002661,0,0.0,0.0,0.0,
1690794339499994,2,1,0,3,106,1.78,1.71,6.95,35.26,-0.12,-0.15,-0.02,0.53,0.4,-0.2,-0.02,6.39,0.31,6.42,39.53,6.46,35.28,8.24,35.3,8.2,39.55,0,0.0,0,6,0x800,100,2210.99,1073.49,2182.37,131.69,91.88,1,2,1,94.138527,1,3,3,2145.141602,1029.065308,1111.551758,2182.367676,1027.553223,1119.435669,2276.834473,1027.427002,1119.095337,-1.0,-1.0,-1.0,-1.0,0,0.0,0.0,1,0,-0.2,0.54,6.44,32.34,6.44,32.34,-0.2,0.54,-0.02,0.4,6.97,35.14,6.96,35.29,-0.2,0.54,-0.02,0.4,0.007228,0.007228,0.0,0.0,1,-0.008835,-0.003403,0,0.0,0.0,0.0,
1690794339499994,2,1,0,1,106,1.41,1.55,3.79,35.32,-0.11,-0.17,-0.03,3.28,0.54,-0.21,-0.03,9.14,0.44,3.19,35.41,4.6,35.29,4.96,39.55,3.55,39.67,0,0.0,0,5,0x800,100,2045.09,1077.55,2007.35,76.48,83.13,1,2,2,89.832138,1,2,2,2006.853516,1036.605957,1111.201538,2007.349731,1035.983887,1119.116211,2083.332764,1035.845947,1119.114014,-1.0,-1.0,-1.0,-1.0,0,0.0,0.0,1,0,-0.21,3.28,3.47,31.7,3.47,31.7,-0.21,3.28,-0.03,0.54,3.6,32.92,3.79,35.34,-0.21,3.28,-0.03,0.54,0.004499,0.004499,0.0,0.0,0,0.08318,0.08318,0,0.0,0.0,0.0,
1690794339499994,2,1,0,7,86,1.46,1.45,5.63,39.56,0.12,-0.19,-0.01,-0.13,0.51,-0.25,-0.01,5.74,0.41,5.06,43.05,4.91,39.59,6.37,39.53,6.51,42.99,0,0.0,0,13,0x800,100,2101.65,1064.89,2072.39,81.76,69.98,1,2,1,90.51548,1,1,1,2060.770752,1030.848145,1095.445312,2072.38623,1029.905151,1099.880737,2142.533936,1029.785767,1099.767456,-1.0,-1.0,-1.0,-1.0,0,0.0,0.0,1,0,-0.25,-0.12,6.11,43.18,6.11,43.18,-0.25,-0.12,-0.01,0.51,5.6,39.44,5.63,39.56,-0.25,-0.12,-0.01,0.51,0.0,0.0,0.0,0.0,0,0.042582,0.1172,0,0.0,0.0,0.0,
1690794339499994,0,3,2,13,6,1.75,2.71,22.22,42.32,-0.97,-0.58,-0.0,-6.46,-0.12,-0.64,-0.0,-0.58,-0.22,22.09,42.33,23.84,42.26,23.84,42.27,22.1,42.34,0,0.0,0,22,0x100001,100,2858.28,1082.52,2819.55,77.84,120.67,1,-1,-1,80.115913,1,3,3,2819.353027,1022.190063,1142.830078,2819.553711,1022.185608,1142.852417,2897.197754,1022.05481,1142.721069,-1.0,-1.0,-1.0,-1.0,0,0.0,0.0,1,2,-0.64,-6.43,13.48,24.08,20.27,38.4,-0.29,-6.15,-0.0,-0.12,14.4,25.85,23.61,45.12,-0.89,-6.64,-0.0,-0.12,0.416699,0.416699,0.0,0.0,0,5.3e-05,0.0,1,0.0,0.0,0.0,
1690794339499994,2,1,1,11,96,1.07,1.45,11.27,66.39,-0.03,-0.11,-0.02,-1.61,-0.36,-0.2,-0.02,4.26,-0.46,10.29,66.61,12.26,66.34,12.85,70.57,10.88,70.85,0,0.0,0,11,0x800,100,2163.9,1060.06,2135.39,59.75,42.16,1,2,2,97.805176,1,2,2,2134.025879,1039.14502,1078.852051,2135.393799,1038.976807,1081.140625,2193.773438,1038.870361,1081.15332,-1.0,-1.0,-1.0,-1.0,0,0.0,0.0,1,0,-0.2,-1.6,11.55,71.63,11.55,71.63,-0.2,-1.6,-0.02,-0.36,11.77,73.08,11.27,66.39,-0.2,-1.6,-0.02,-0.36,0.0,0.0,0.0,0.0,0,0.079449,0.079449,0,0.0,0.0,0.0,
1690794339499994,2,1,5,9,5,1.79,1.37,9.82,112.0,1.08,0.14,-0.0,-0.57,-0.09,-0.02,-0.0,5.3,-0.19,8.93,112.11,10.71,111.97,11.05,116.23,9.26,116.37,0,0.0,0,23,0x920,100,2008.12,1034.44,1992.46,31.33,23.93,1,2,2,96.653709,1,3,3,1992.452759,1023.179626,1046.250366,1992.457764,1022.473511,1046.406738,2023.785156,1022.408997,1046.356445,-1.0,-1.0,-1.0,-1.0,0,0.0,0.0,1,2,-0.02,-0.56,51.73,598.01,51.73,598.01,-0.02,-0.56,-0.0,-0.09,9.59,109.36,9.95,112.0,-0.02,-0.56,-0.0,-0.09,0.0,0.0,0.0,0.0,1,0.07982,0.078157,0,0.0,0.0,0.0,
1690794339999973,2,1,5,14,5,0.42,0.79,3.33,1.68,-0.01,0.0,0.0,-0.01,0.0,0.0,0.0,5.87,0.0,3.12,1.69,3.54,1.67,3.55,1.68,3.12,1.7,3,0.89,0,28,0x804,0,3692.68,1558.04,3576.72,241.16,441.99,1,1,1,82.990593,0,0,0,3572.101562,1336.229126,1776.97998,3576.71875,1337.051147,1779.03833,3813.258301,1336.668945,1778.649414,-1.0,-1.0,-1.0,-1.0,0,0.0,0.0,3,-1,0.0,0.0,3.33,1.67,3.33,1.67,0.0,0.0,0.0,0.0,6.14,4.63,6.14,4.63,0.0,0.0,0.0,0.0,0.997527,0.997527,0.0,0.0,0,-3.141593,0.0,0,0.0,0.0,0.0,
1690794339999973,2,1,1,8,121,1.79,1.48,10.68,7.14,-0.14,0.08,-0.02,-1.45,0.3,0.06,-0.02,4.45,0.3,12.14,11.22,13.04,7.04,14.79,7.41,13.9,11.59,0,0.0,0,3,0x800,100,4250.23,1190.48,4629.79,1222.4,317.63,1,1,1,90.439751,0,0,0,3639.028564,1034.098145,1254.129639,4629.792969,1031.669312,1349.295288,4861.429199,1031.418579,1334.655518,-1.0,-1.0,-1.0,-1.0,0,0.0,0.0,1,1,0.06,-1.42,10.68,7.14,10.68,7.14,0.06,-1.42,-0.02,0.3,10.68,7.14,10.68,7.19,0.06,-1.42,-0.02,0.3,0.0,0.0,0.0,0.0,0,-0.210083,-0.210203,0,0.0,0.0,0.0,
1690794339999973,2,1,5,2,6,1.21,1.45,9.66,8.21,-0.73,0.02,0.0,-0.03,0.0,0.0,0.0,5.87,0.0,9.06,8.23,10.26,8.18,10.26,8.19,9.06,8.24,0,0.0,0,27,0x804,100,3703.89,1292.73,3587.95,235.11,281.13,1,1,1,83.454178,1,1,1,3586.339355,1152.058594,1432.914673,3587.954102,1152.16748,1433.295776,3821.447754,1151.790405,1432.914429,-1.0,-1.0,-1.0,-1.0,0,0.0,0.0,3,-1,0.0,0.0,6.27,4.69,6.27,4.69,0.0,0.0,0.0,0.0,9.66,8.21,9.66,8.21,0.0,0.0,0.0,0.0,0.0,0.0,0.0,0.0,0,-3.141593,0.0,0,0.0,0.0,0.0,
1690794339999973,2,1,0,0,121,1.76,1.61,0.24,9.91,0.0,-0.09,-0.01,0.79,0.35,-0.11,-0.01,6.66,0.35,-0.63,14.22,-0.63,9.95,1.13,9.95,1.13,14.22,1,0.92,1,1,0x0,100,1877.74,1128.03,1727.78,299.91,275.02,1,2,2,95.723778,1,1,1,1727.78064,990.518066,1265.534058,1727.78064,990.518066,1265.534058,2027.690552,990.324341,1263.691284,-1.0,-1.0,-1.0,-1.0,0,0.0,0.0,1,1,-0.11,0.79,0.24,9.85,0.24,9.91,-0.11,0.79,-0.01,0.35,0.25,10.15,0.25,10.2,-0.12,0.81,-0.01,0.36,0.994545,0.994545,0.001773,0.624323,1,0.000348,0.0,0,0.0,0.0,0.0,
1690794339999973,2,1,1,6,121,1.62,1.5,8.67,10.08,-0.02,-0.22,-0.01,-3.18,0.26,-0.25,-0.01,2.71,0.26,8.91,13.92,9.13,10.06,10.75,10.15,10.53,14.01,0,0.0,0,4,0x800,100,3261.61,1133.81,3332.94,629.66,246.33,1,2,1,95.7715,0,0,0,2946.77832,1017.448975,1204.628174,3332.94043,1010.639771,1256.973267,3576.44043,1010.567749,1253.830322,-1.0,-1.0,-1.0,-1.0,0,0.0,0.0,1,2,-0.25,-3.16,8.66,10.03,8.65,10.04,-0.24,-3.14,-0.01,0.27,9.6,11.32,9.58,11.31,-0.48,-4.02,-0.04,0.11,0.973814,0.973814,0.0,0.0,1,-0.055051,-0.05413,0,0.0,0.0,0.0,
1690794339999973,2,1,0,4,121,1.76,1.62,6.91,21.85,-0.24,-0.41,-0.07,-0.41,0.11,-0.46,-0.07,5.47,0.11,6.52,26.07,6.63,21.86,8.39,21.9,8.29,26.11,0,0.0,0,2,0x800,100,2417.93,1101.59,2391.05,234.77,135.29,1,2,1,95.310081,0,0,0,2300.547607,1034.697021,1149.73584,2391.050293,1033.942993,1169.230957,2535.313965,1033.729248,1168.372437,-1.0,-1.0,-1.0,-1.0,0,0.0,0.0,1,0,-0.46,-0.4,5.92,18.33,5.92,18.33,-0.46,-0.4,-0.07,0.11,7.04,22.16,6.99,22.13,-0.46,-0.4,-0.07,0.11,0.07411,0.07411,0.0,0.0,1,-0.024794,-0.023151,0,0.0,0.0,0.0,
1690794339999973,0,3,3,13,21,0.94,1.66,13.16,22.79,-0.17,-2.8,0.0,-8.3,-0.0,-2.85,0.0,-2.39,-0.0,12.76,22.81,13.69,22.77,13.69,22.78,12.76,22.82,0,0.0,0,22,0x0,100,2890.4,1090.63,2853.29,74.96,131.94,1,-1,-1,87.695091,1,3,3,2852.918457,1024.66748,1156.555786,2853.291992,1024.661865,1156.602661,2927.880127,1024.541382,1156.481567,-1.0,-1.0,-1.0,-1.0,0,0.0,0.0,1,2,-2.85,-8.26,11.87,20.28,12.68,21.92,-3.03,-8.56,0.0,-0.0,13.58,23.46,14.01,24.32,-2.54,-7.75,0.0,-0.0,0.639182,0.639182,0.0,0.0,0,0.000542,0.0,0,0.0,0.0,0.0,
1690794339999973,2,1,1,10,41,1.79,1.51,13.12,23.69,-0.25,-0.32,-0.02,-3.33,-0.06,-0.38,-0.02,2.58,-0.06,13.39,27.95,13.41,23.68,15.2,23.69,15.18,27.96,0,0.0,0,20,0x800,100,2862.19,1099.87,2868.84,281.53,116.62,1,2,1,94.068085,1,3,3,2721.419189,1041.192871,1141.350342,2868.844727,1041.563721,1158.180298,3002.952637,1041.333374,1157.581055,-1.0,-1.0,-1.0,-1.0,0,0.0,0.0,1,0,-0.38,-3.29,11.27,19.99,11.27,19.99,-0.38,-3.29,-0.02,-0.06,12.62,22.6,13.12,23.69,-0.38,-3.29,-0.02,-0.06,0.0,0.0,0.0,0.0,0,-0.005935,-0.043778,0,0.0,0.0,0.0,
1690794339999973,2,1,1,12,66,1.61,1.75,10.74,26.59,-0.23,-0.28,-0.02,-2.68,0.08,-0.35,-0.02,3.21,0.08,10.55,30.23,10.41,26.61,12.01,26.54,12.16,30.17,0,0.0,0,17,0x800,100,2578.92,1085.29,2559.16,183.64,121.36,1,2,1,94.610085,0,0,0,2487.096924,1026.191162,1133.961792,2559.162598,1024.606812,1145.968262,2670.740234,1024.426636,1145.786011,-1.0,-1.0,-1.0,-1.0,0,0.0,0.0,1,0,-0.35,-2.66,9.25,22.61,9.25,22.61,-0.35,-2.66,-0.02,0.08,10.78,26.66,10.8,26.74,-0.35,-2.66,-0.02,0.08,0.035809,0.035809,0.0,0.0,0,0.039836,0.040016,0,0.0,0.0,0.0,
1690794339999973,2,1,1,5,121,1.26,1.45,7.81,30.05,0.1,-0.59,-0.07,-2.97,-0.04,-0.67,-0.07,2.92,-0.04,7.48,33.08,7.55,30.06,8.81,30.09,8.75,33.11,0,0.0,0,9,0x1800,100,2322.39,1069.06,2305.67,121.28,90.2,1,2,1,91.282555,1,1,1,2261.751221,1025.243652,1107.706543,2305.674561,1023.956543,1114.157715,2383.035156,1023.865479,1113.850098,-1.0,-1.0,-1.0,-1.0,0,0.0,0.0,1,0,-0.67,-2.95,8.52,32.97,8.52,32.97,-0.67,-2.95,-0.07,-0.04,7.76,29.87,7.82,30.05,-0.67,-2.95,-0.07,-0.04,0.0,0.0,0.0,0.0,0,-0.025373,-0.025373,0,0.0,0.0,0.0,
1690794339999973,2,1,0,3,121,1.77,1.69,6.8,34.56,-0.18,-0.18,-0.03,-0.12,0.15,-0.27,-0.03,5.77,0.15,6.27,38.8,6.29,34.58,8.06,34.59,8.04,38.81,0,0.0,0,6,0x800,100,2209.51,1074.47,2180.09,132.47,92.24,1,2,1,94.679382,1,2,2,2143.279297,1029.440674,1112.147461,2180.089844,1028.348267,1120.591919,2275.748779,1028.215698,1120.254395,-1.0,-1.0,-1.0,-1.0,0,0.0,0.0,1,0,-0.27,-0.1,6.06,30.43,6.06,30.43,-0.27,-0.1,-0.03,0.15,6.87,34.74,6.81,34.59,-0.27,-0.1,-0.03,0.15,0.007372,0.007372,0.0,0.0,0,-0.006,0.004214,0,0.0,0.0,0.0,
1690794339999973,2,1,0,1,121,1.51,1.44,3.85,36.3,-0.14,0.02,0.0,2.99,0.35,-0.08,0.0,8.87,0.35,3.08,36.39,4.58,36.27,4.93,40.52,3.42,40.65,0,0.0,0,5,0x800,100,2036.48,1077.38,1996.99,78.99,75.33,1,2,2,90.026703,1,1,1,1996.98645,1039.713257,1115.047363,1996.98645,1039.713257,1115.047363,2075.978271,1039.587158,1115.04248,-1.0,-1.0,-1.0,-1.0,0,0.0,0.0,1,0,-0.08,3.0,3.4,31.99,3.4,31.99,-0.08,3.0,0.0,0.35,3.85,36.52,3.85,36.31,-0.08,3.0,0.0,0.35,0.002926,0.002926,0.0,0.0,0,0.08084,0.08084,0,0.0,0.0,0.0,
1690794339999973,2,1,0,7,101,1.46,1.47,5.69,40.48,0.01,-0.02,0.01,0.93,0.57,-0.13,0.01,6.81,0.57,5.13,43.96,4.98,40.51,6.44,40.44,6.59,43.9,0,0.0,0,13,0x800,100,2099.5,1066.04,2070.7,79.68,69.09,1,2,1,89.349541,1,3,3,2059.657959,1032.043701,1095.931152,2070.699951,1031.49646,1100.5896,2139.341553,1031.384399,1100.486816,-1.0,-1.0,-1.0,-1.0,0,0.0,0.0,1,0,-0.13,0.94,5.7,40.97,5.7,40.97,-0.13,0.94,0.01,0.57,5.7,40.97,5.69,40.48,-0.13,0.94,0.01,0.57,0.0,0.0,0.0,0.0,0,0.044019,0.113725,0,0.0,0.0,0.0,
1690794339999973,2,1,0,11,111,1.02,1.45,12.57,75.09,-0.24,1.08,0.17,5.16,1.47,0.89,0.17,11.06,1.47,11.6,75.31,13.57,75.03,14.16,79.27,12.19,79.54,0,0.0,0,11,0x1800,100,2160.65,1060.08,2135.29,52.85,37.41,1,2,2,96.95845,1,2,2,2134.227051,1041.226318,1076.689453,2135.293457,1041.378174,1078.788086,2187.074463,1041.301758,1078.806885,-1.0,-1.0,-1.0,-1.0,0,0.0,0.0,1,0,0.89,5.19,10.68,66.48,10.68,66.48,0.89,5.19,0.17,1.47,12.48,77.99,12.57,75.09,0.89,5.19,0.17,1.47,0.0,0.0,0.0,0.0,0,0.026285,0.026285,0,0.0,0.0,0.0,
1690794339999973,2,1,2,9,20,1.79,1.09,7.71,90.98,0.88,-0.68,-0.04,-26.95,-0.26,-0.91,-0.04,-21.06,-0.26,6.82,91.08,8.6,90.95,8.91,95.21,7.13,95.34,0,0.0,0,23,0x3821,100,2001.73,1036.54,1982.57,38.54,23.41,1,2,2,98.880966,1,3,3,1982.461426,1025.442871,1047.822998,1982.573364,1024.835693,1048.242798,2021.002319,1024.765015,1048.186401,-1.0,-1.0,-1.0,-1.0,0,0.0,0.0,1,1,-0.91,-26.93,19.8,236.57,19.8,236.57,-0.91,-26.93,-0.04,-0.26,6.74,79.38,7.0,91.01,-0.91,-26.93,-0.04,-0.26,0.0,0.0,0.0,0.0,1,0.0751,0.072013,0,0.0,0.0,0.0,
1690794340499931,2,1,0,14,20,1.02,1.1,3.03,1.69,-0.0,0.01,0.0,-0.01,0.0,0.0,0.0,5.98,0.22,2.52,1.71,3.54,1.66,3.54,1.67,2.52,1.72,3,0.85,0,28,0x804,0,3524.88,1475.12,3241.5,574.15,613.77,1,1,1,93.427536,0,0,0,3237.806641,1167.889893,1779.942383,3241.497314,1168.239136,1782.005249,3811.956543,1167.296753,1781.038574,-1.0,-1.0,-1.0,-1.0,0,0.0,0.0,3,-1,0.0,0.0,3.02,1.68,3.02,1.68,0.0,0.0,0.0,0.0,4.0,2.82,4.0,2.82,0.0,0.0,0.0,0.0,0.997527,0.997527,0.0,0.0,0,-3.141593,0.0,0,0.0,0.0,0.0,
1690794340499931,2,1,1,6,136,1.73,1.47,8.39,8.0,0.01,-1.33,-0.21,-5.07,-0.39,-1.36,-0.21,0.95,-0.18,8.98,12.11,8.93,7.98,10.67,7.96,10.71,12.09,0,0.0,0,4,0x1800,100,3516.39,1153.95,3603.28,837.95,290.38,1,2,1,95.723778,0,0,0,3097.417969,1018.154785,1224.359375,3603.280273,1008.758606,1299.140259,3935.363281,1008.351318,1297.315796,-1.0,-1.0,-1.0,-1.0,0,0.0,0.0,1,2,-1.36,-5.03,8.39,8.0,8.39,8.0,-1.36,-5.03,-0.21,-0.39,8.39,8.0,8.4,8.02,-1.36,-5.03,-0.21,-0.39,0.0,0.0,0.0,0.0,0,0.011794,0.011468,0,0.0,0.0,0.0,
1690794340499931,2,1,0,0,136,1.69,1.49,0.21,10.34,0.09,-0.06,-0.01,0.77,0.07,-0.11,-0.01,6.76,0.29,-0.64,14.65,-0.64,10.37,1.05,10.37,1.05,14.65,1,0.93,1,1,0x0,100,1869.71,1122.85,1730.98,277.46,246.33,1,2,2,95.336189,1,1,1,1730.984497,999.688354,1246.015625,1730.984497,999.688354,1246.015625,2008.444092,999.458435,1244.418823,-1.0,-1.0,-1.0,-1.0,0,0.0,0.0,1,1,-0.11,0.78,0.21,10.47,0.21,10.33,-0.11,0.77,-0.01,0.07,0.22,11.11,0.22,10.77,-0.11,0.8,-0.01,0.08,0.974075,0.974075,0.003045,1.100127,1,0.000433,0.0,0,0.0,0.0,0.0,
1690794340499931,0,3,3,13,36,0.96,1.49,12.44,20.31,0.07,-1.94,0.0,-6.38,-0.0,-2.02,0.0,-0.34,0.22,11.87,20.33,12.83,20.29,12.83,20.3,11.87,20.34,0,0.0,0,22,0x400000,100,2930.09,1085.32,2887.71,85.64,131.77,1,-1,-1,88.151299,1,3,3,2887.275635,1019.451172,1151.159424,2887.705322,1019.44165,1151.20813,2972.911133,1019.299866,1151.065674,-1.0,-1.0,-1.0,-1.0,0,0.0,0.0,1,2,-2.02,-6.33,13.2,21.83,11.91,19.33,-2.09,-6.46,0.0,-0.0,14.11,23.46,13.37,22.02,-1.9,-6.09,0.0,-0.0,0.636859,0.636859,0.0,0.0,0,0.000689,0.0,0,0.0,0.0,0.0,
1690794340499931,2,1,0,4,136,1.76,1.61,6.92,22.26,-0.21,-0.25,-0.04,0.02,-0.02,-0.34,-0.04,6.03,0.19,6.48,26.48,6.61,22.27,8.37,22.33,8.24,26.53,0,0.0,0,2,0x800,100,2406.12,1101.01,2379.97,230.35,132.37,1,2,1,95.27063,1,1,1,2290.94458,1035.792725,1148.677368,2379.97168,1034.821045,1167.193115,2521.299316,1034.614258,1166.314819,-1.0,-1.0,-1.0,-1.0,0,0.0,0.0,1,0,-0.34,0.04,6.0,19.05,6.0,19.05,-0.34,0.04,-0.04,-0.02,7.01,22.55,6.98,22.48,-0.34,0.04,-0.04,-0.02,0.063806,0.063806,0.0,0.0,1,-0.030335,-0.02658,0,0.0,0.0,0.0,
1690794340499931,2,1,1,10,56,1.77,1.49,13.58,24.4,-0.2,-0.34,-0.03,-3.11,-0.25,-0.43,-0.03,2.93,-0.03,13.69,28.62,13.78,24.4,15.55,24.43,15.46,28.66,0,0.0,0,20,0x800,100,2858.54,1097.89,2867.73,274.17,111.23,1,2,1,91.006699,0,0,0,2721.452393,1042.154419,1138.216309,2867.73291,1042.272949,1153.50708,2995.625,1042.049438,1152.839355,-1.0,-1.0,-1.0,-1.0,0,0.0,0.0,1,0,-0.43,-3.06,11.67,21.35,11.67,21.35,-0.43,-3.06,-0.03,-0.25,13.51,25.02,13.62,24.46,-0.43,-3.06,-0.03,-0.25,0.020808,0.020808,0.0,0.0,0,-0.02039,-0.00312,0,0.0,0.0,0.0,
1690794340499931,2,1,1,12,81,1.56,1.74,10.37,24.97,-0.17,-0.47,-0.05,-2.94,-0.18,-0.57,-0.05,3.09,0.04,10.33,28.55,10.19,24.98,11.75,24.92,11.89,28.49,0,0.0,0,17,0x1800,100,2605.29,1086.32,2586.83,193.04,128.3,1,2,1,96.017487,0,0,0,2508.766602,1024.381592,1137.748413,2586.827393,1022.171509,1150.469238,2701.810547,1021.980164,1150.277466,-1.0,-1.0,-1.0,-1.0,0,0.0,0.0,1,0,-0.57,-2.9,9.27,22.14,9.27,22.14,-0.57,-2.9,-0.05,-0.18,10.42,25.11,10.43,25.13,-0.57,-2.9,-0.05,-0.18,0.051702,0.051702,0.0,0.0,0,0.040082,0.040018,0,0.0,0.0,0.0,
1690794340499931,2,1,1,5,136,1.32,1.45,8.13,30.67,0.18,-0.01,0.04,-1.27,0.11,-0.14,0.04,4.75,0.33,7.68,33.82,7.99,30.68,9.3,30.81,9.0,33.95,0,0.0,0,9,0x800,100,2332.34,1065.95,2323.55,136.73,88.45,1,2,1,90.51548,1,3,3,2263.97583,1023.45874,1104.210205,2323.549316,1021.724854,1110.179199,2400.704346,1021.699463,1109.667725,-1.0,-1.0,-1.0,-1.0,0,0.0,0.0,1,0,-0.14,-1.24,9.55,36.4,9.55,36.4,-0.14,-1.24,0.04,0.11,8.15,30.78,8.2,30.67,-0.14,-1.24,0.04,0.11,0.0,0.0,0.0,0.0,0,-0.125382,-0.125382,0,0.0,0.0,0.0,
1690794340499931,2,1,0,3,136,1.72,1.7,6.71,34.51,-0.14,-0.16,-0.03,-0.13,-0.08,-0.29,-0.03,5.88,0.14,6.16,38.64,6.21,34.53,7.93,34.55,7.88,38.66,0,0.0,0,6,0x800,100,2204.31,1074.44,2176.14,130.03,93.24,1,2,1,93.812401,1,2,2,2139.291504,1029.188232,1113.003662,2176.14209,1027.820557,1121.057861,2269.321777,1027.697021,1120.704956,-1.0,-1.0,-1.0,-1.0,0,0.0,0.0,1,0,-0.29,-0.1,6.12,31.23,6.12,31.23,-0.29,-0.1,-0.03,-0.08,6.7,34.36,6.71,34.54,-0.29,-0.1,-0.03,-0.08,0.007786,0.007786,0.0,0.0,0,-0.012262,-0.010622,0,0.0,0.0,0.0,
1690794340499931,2,1,0,1,136,1.65,1.43,3.83,37.38,-0.11,0.08,0.0,2.88,0.09,-0.07,0.0,8.88,0.31,2.98,37.48,4.63,37.35,4.95,41.61,3.3,41.73,0,0.0,0,5,0x800,100,2029.5,1077.44,1987.42,84.15,72.81,1,2,2,90.303795,1,1,1,1987.419922,1041.035034,1113.843994,1987.419922,1041.035034,1113.843994,2071.573486,1040.894775,1113.815552,-1.0,-1.0,-1.0,-1.0,0,0.0,0.0,1,0,-0.07,2.9,3.44,33.74,3.44,33.74,-0.07,2.9,0.0,0.09,3.84,37.86,3.83,37.39,-0.07,2.9,0.0,0.09,0.002545,0.002545,0.0,0.0,0,0.076634,0.075692,0,0.0,0.0,0.0,
1690794340499931,2,1,0,7,116,1.63,1.46,5.75,42.39,0.07,0.11,0.02,2.34,0.58,-0.06,0.02,8.35,0.8,5.19,46.22,5.0,42.42,6.63,42.34,6.82,46.14,0,0.0,0,13,0x800,100,2093.26,1064.48,2061.39,83.44,65.68,1,2,1,92.840881,1,3,3,2051.537354,1032.390015,1092.887573,2061.38916,1031.639648,1097.315063,2134.975342,1031.513672,1097.213135,-1.0,-1.0,-1.0,-1.0,0,0.0,0.0,1,0,-0.06,2.37,6.02,44.47,6.02,44.47,-0.06,2.37,0.02,0.58,5.72,42.15,5.75,42.39,-0.06,2.37,0.02,0.58,0.0,0.0,0.0,0.0,0,0.050162,0.039979,0,0.0,0.0,0.0,
1690794340499931,2,1,2,9,35,1.69,1.06,4.99,61.85,0.85,-1.62,-0.1,-41.53,-0.62,-1.86,-0.1,-35.53,-0.4,4.15,61.92,5.84,61.81,6.11,66.08,4.43,66.19,0,0.0,0,23,0x3821,100,1992.51,1039.49,1966.03,53.03,33.21,1,2,2,98.570427,1,3,3,1965.997437,1024.027832,1055.151978,1966.03064,1022.884949,1056.091187,2019.028687,1022.784546,1056.012451,-1.0,-1.0,-1.0,-1.0,0,0.0,0.0,1,2,-1.86,-41.51,13.54,170.93,13.54,170.93,-1.86,-41.51,-0.1,-0.62,4.86,60.21,5.1,61.84,-1.86,-41.51,-0.1,-0.62,0.0,0.0,0.0,0.0,0,0.06831,0.064745,0,0.0,0.0,0.0,
1690794340499931,2,1,0,11,126,0.85,1.45,12.48,78.55,-0.26,0.75,0.07,6.33,1.39,0.43,0.07,12.37,1.61,11.51,78.77,13.48,78.49,14.08,82.72,12.11,83.0,0,0.0,0,11,0x800,100,2145.03,1062.02,2120.33,49.67,35.82,1,2,2,92.982368,1,2,2,2120.19873,1043.94751,1077.976807,2120.330078,1044.109375,1079.926758,2169.864014,1044.03479,1079.940674,-1.0,-1.0,-1.0,-1.0,0,0.0,0.0,2,0,0.43,6.38,10.26,64.18,10.26,64.18,0.43,6.38,0.07,1.39,11.11,69.66,12.48,78.55,0.43,6.38,0.07,1.39,0.0,0.0,0.0,0.0,0,-0.047623,-0.202495,0,0.0,0.0,0.0,
1690794341000153,2,1,0,14,35,1.44,1.32,2.84,1.7,-0.0,0.01,0.0,-0.01,0.0,0.0,0.0,6.2,0.41,2.12,1.73,3.56,1.67,3.56,1.68,2.12,1.74,3,0.83,0,28,0xA04,0,3415.81,1406.37,3017.06,803.62,737.61,1,2,1,94.620033,0,0,0,3014.001221,1037.564209,1773.129883,3017.057617,1037.565796,1775.179321,3817.623535,1036.315552,1773.892334,-1.0,-1.0,-1.0,-1.0,0,0.0,0.0,3,-1,0.0,0.0,2.84,1.7,2.84,1.7,0.0,0.0,0.0,0.0,3.11,2.04,3.11,2.04,0.0,0.0,0.0,0.0,0.997527,0.997527,0.0,0.0,0,0.0,0.0,0,0.0,0.0,0.0,
1690794341000153,2,1,1,6,151,1.73,1.47,7.59,5.15,0.01,-1.54,-0.23,-5.49,-0.64,-1.56,-0.23,0.75,-0.23,8.18,9.25,8.14,5.12,9.87,5.1,9.91,9.23,0,0.0,0,4,0x1800,100,3912.79,1195.32,4087.9,1271.31,406.27,1,1,1,95.723778,0,0,0,3277.13501,1008.439087,1267.004883,4087.898682,992.187622,1398.454346,4548.447266,991.743042,1395.241699,-1.0,-1.0,-1.0,-1.0,0,0.0,0.0,1,2,-1.56,-5.45,7.59,5.15,7.59,5.15,-1.56,-5.45,-0.23,-0.64,7.59,5.15,7.59,5.15,-1.56,-5.45,-0.23,-0.64,0.0,0.0,0.0,0.0,0,0.012058,0.011468,0,0.0,0.0,0.0,
1690794341000153,2,1,0,0,151,1.71,1.49,0.18,10.96,0.08,-0.06,-0.01,0.6,-0.21,-0.11,-0.01,6.8,0.19,-0.68,15.27,-0.68,11.0,1.04,11.0,1.04,15.27,1,0.92,1,1,0x0,100,1863.66,1115.33,1729.7,267.91,234.11,1,2,2,94.924751,1,1,1,1729.704102,998.281372,1232.387939,1729.704102,998.281372,1232.387939,1997.617432,998.066833,1230.919067,-1.0,-1.0,-1.0,-1.0,0,0.0,0.0,1,1,-0.11,0.6,0.17,10.75,0.18,10.94,-0.11,0.6,-0.01,-0.21,0.18,11.57,0.18,11.51,-0.11,0.63,-0.01,-0.2,0.950169,0.950169,0.002091,0.794184,1,0.000652,0.0,0,0.0,0.0,0.0,
1690794341000153,0,3,3,13,51,0.99,1.55,12.22,19.16,-0.08,-1.15,0.0,-4.29,-0.0,-1.25,0.0,1.96,0.41,11.76,19.18,12.75,19.14,12.75,19.15,11.76,19.19,0,0.0,0,22,0x400000,100,2979.82,1094.27,2933.71,93.17,144.34,1,-1,-1,86.177101,1,3,3,2933.239258,1022.111694,1166.380493,2933.714111,1022.104675,1166.440918,3026.405029,1021.958435,1166.293701,-1.0,-1.0,-1.0,-1.0,0,0.0,0.0,1,2,-1.25,-4.23,11.73,18.26,11.97,18.75,-1.29,-4.26,0.0,-0.0,13.47,21.25,13.4,21.15,-1.05,-4.09,0.0,-0.0,0.827197,0.827197,0.0,0.0,0,0.000931,0.0,0,0.0,0.0,0.0,
1690794341000153,2,1,0,4,151,1.78,1.55,6.78,22.23,-0.24,-0.32,-0.06,-0.16,-0.25,-0.43,-0.06,6.07,0.16,6.38,26.5,6.45,22.24,8.23,22.27,8.16,26.52,0,0.0,0,2,0x800,100,2397.77,1101.68,2367.77,227.92,127.81,1,2,1,95.261818,1,1,1,2283.807861,1037.681152,1146.452881,2367.773193,1037.768677,1165.582642,2511.726074,1037.535156,1164.825684,-1.0,-1.0,-1.0,-1.0,0,0.0,0.0,1,0,-0.43,-0.12,5.79,18.63,5.79,18.63,-0.43,-0.12,-0.06,-0.25,6.66,21.68,6.83,22.42,-0.43,-0.12,-0.06,-0.25,0.050276,0.050276,0.0,0.0,1,-0.015952,0.005605,0,0.0,0.0,0.0,
1690794341000153,2,1,1,12,96,1.72,1.72,10.43,24.02,-0.25,-0.13,0.01,-2.46,-0.26,-0.25,0.01,3.79,0.15,10.24,28.13,10.16,24.03,11.88,24.0,11.95,28.1,0,0.0,0,17,0x800,100,2626.62,1091.02,2611.85,229.69,130.95,1,2,1,95.340538,0,0,0,2511.780762,1027.096924,1140.3396,2611.845703,1025.540527,1156.493652,2741.467773,1025.350586,1156.114136,-1.0,-1.0,-1.0,-1.0,0,0.0,0.0,1,0,-0.25,-2.4,8.77,20.07,8.77,20.07,-0.25,-2.4,0.01,-0.26,10.57,24.55,10.53,24.27,-0.25,-2.4,0.01,-0.26,0.059398,0.059398,0.0,0.0,0,0.017972,0.000875,0,0.0,0.0,0.0,
1690794341000153,2,1,1,10,71,1.78,1.51,13.84,24.4,-0.35,0.17,0.05,-1.94,-0.26,0.05,0.05,4.33,0.15,14.28,28.66,14.2,24.39,15.99,24.35,16.07,28.63,0,0.0,0,20,0x800,100,2894.35,1104.14,2898.8,273.55,113.4,1,2,1,93.30658,0,0,0,2757.578613,1046.009033,1143.758789,2898.798096,1047.437134,1160.836548,3031.12793,1047.211548,1160.4552,-1.0,-1.0,-1.0,-1.0,0,0.0,0.0,1,0,0.05,-1.87,11.25,20.25,11.25,20.25,0.05,-1.87,0.05,-0.26,14.05,25.75,13.89,24.48,0.05,-1.87,0.05,-0.26,0.017684,0.017684,0.0,0.0,0,-0.004779,-0.136141,0,0.0,0.0,0.0,
1690794341000153,2,1,0,5,151,1.79,1.45,10.31,32.87,0.12,2.2,0.5,1.19,0.45,2.04,0.5,7.44,0.86,10.03,37.07,10.71,32.85,12.48,33.14,11.8,37.36,0,0.0,0,9,0x1800,0,2444.0,1063.46,2447.19,193.68,82.7,1,0,1,81.873688,1,2,2,2347.164062,1023.764893,1097.630859,2447.187744,1022.108093,1104.803223,2540.84375,1022.100891,1103.964966,-1.0,-1.0,-1.0,-1.0,0,0.0,0.0,1,0,2.04,1.25,12.24,45.05,12.24,45.05,2.04,1.25,0.5,0.45,10.97,40.21,10.31,32.87,2.04,1.25,0.5,0.45,0.0,0.0,0.0,0.0,0,2.985623,-0.255657,0,0.0,0.0,0.0,
1690794341000153,2,1,0,3,151,1.66,1.68,6.55,33.64,-0.24,-0.2,-0.04,-0.88,-0.41,-0.36,-0.04,5.35,-0.01,6.01,37.63,6.07,33.66,7.74,33.68,7.68,37.65,0,0.0,0,6,0x800,100,2204.22,1077.13,2176.67,129.15,94.43,1,2,1,93.703812,1,3,3,2139.648438,1030.642822,1115.623779,2176.670166,1029.917603,1124.35022,2268.797119,1029.788818,1123.981201,-1.0,-1.0,-1.0,-1.0,0,0.0,0.0,1,0,-0.36,-0.84,5.59,28.38,5.59,28.38,-0.36,-0.84,-0.04,-0.41,6.61,33.9,6.56,33.69,-0.36,-0.84,-0.04,-0.41,0.008312,0.008312,0.0,0.0,0,-0.014627,-0.012427,0,0.0,0.0,0.0,
1690794341000153,2,1,0,1,151,1.73,1.48,3.54,36.78,-0.24,-0.18,-0.06,1.11,-0.49,-0.36,-0.06,7.32,-0.08,2.8,36.87,4.53,36.74,4.84,41.0,3.12,41.13,0,0.0,0,5,0x800,100,2025.56,1079.61,1980.87,89.39,76.53,1,2,2,89.805344,1,3,3,1980.865601,1041.34436,1117.877075,1980.865601,1041.34436,1117.877075,2070.252441,1041.209595,1117.854736,-1.0,-1.0,-1.0,-1.0,0,0.0,0.0,1,0,-0.36,1.12,2.99,30.03,2.99,30.03,-0.36,1.12,-0.06,-0.49,3.54,35.94,3.55,36.8,-0.36,1.12,-0.06,-0.49,0.003123,0.003123,0.0,0.0,0,0.073042,0.070154,0,0.0,0.0,0.0,
1690794341000153,2,1,0,7,131,1.64,1.47,5.66,41.93,-0.08,0.04,0.0,1.18,0.1,-0.17,0.0,7.41,0.51,5.14,45.85,4.94,41.96,6.58,41.88,6.78,45.76,0,0.0,0,13,0x800,100,2093.51,1067.51,2061.01,84.74,66.78,1,2,1,95.077789,0,0,0,2051.143555,1034.355347,1095.698486,2061.008789,1034.12439,1100.904785,2135.881592,1034.004761,1100.814453,-1.0,-1.0,-1.0,-1.0,0,0.0,0.0,1,0,-0.17,1.21,5.27,38.71,5.27,38.71,-0.17,1.21,0.0,0.1,5.62,41.43,5.66,41.94,-0.17,1.21,0.0,0.1,0.0,0.0,0.0,0.0,0,0.051868,0.039976,0,0.0,0.0,0.0,
1690794341000153,2,1,0,2,10,0.84,1.45,10.25,45.07,-0.28,0.23,0.0,-0.44,-0.19,0.01,0.0,5.81,0.22,9.85,45.23,10.68,45.05,11.56,49.24,10.73,49.41,0,0.0,0,29,0x800,100,2270.04,1073.76,2251.92,36.24,61.21,1,2,2,85.812523,1,3,3,2251.918213,1043.155396,1104.36853,2251.918213,1043.155396,1104.36853,2288.161621,1043.117798,1104.512573,-1.0,-1.0,-1.0,-1.0,0,0.0,0.0,1,0,0.01,-0.39,8.34,36.38,8.34,36.38,0.01,-0.39,0.0,-0.19,10.28,45.24,10.26,45.07,0.01,-0.39,0.0,-0.19,0.0,0.0,0.0,0.0,0,0.20656,0.20656,0,0.0,0.0,0.0,
1690794341000153,2,1,2,9,50,1.86,1.06,4.04,52.04,0.67,-1.45,-0.07,-33.26,-0.19,-1.7,-0.07,-27.04,0.22,3.11,52.11,4.97,52.0,5.23,56.27,3.37,56.38,0,0.0,0,23,0x3821,100,1985.75,1041.67,1951.34,68.81,39.26,1,2,2,97.865143,1,3,3,1951.341919,1022.044739,1061.303223,1951.341919,1022.044739,1061.303223,2020.156128,1021.925476,1061.21106,-1.0,-1.0,-1.0,-1.0,0,0.0,0.0,1,2,-1.7,-33.24,9.22,121.17,9.22,121.17,-1.7,-33.24,-0.07,-0.19,4.72,61.2,4.62,52.02,-1.7,-33.24,-0.07,-0.19,0.0,0.0,0.0,0.0,0,0.062949,0.06023,0,0.0,0.0,0.0,
1690794341000153,2,1,0,11,141,0.49,1.45,11.51,73.48,-0.39,-0.41,-0.18,0.58,-0.66,-0.77,-0.18,6.83,-0.25,10.54,73.71,12.51,73.42,13.12,77.66,11.15,77.94,0,0.0,0,11,0x1800,100,2140.34,1062.69,2113.91,52.86,38.22,1,2,2,95.515213,1,3,3,2113.912354,1043.57373,1081.796509,2113.912354,1043.57373,1081.796509,2166.768066,1043.508545,1081.834229,-1.0,-1.0,-1.0,-1.0,0,0.0,0.0,1,0,-0.77,0.63,8.26,51.3,8.26,51.3,-0.77,0.63,-0.18,-0.66,10.59,66.26,11.51,73.48,-0.77,0.63,-0.18,-0.66,0.0,0.0,0.0,0.0,0,-0.979633,-0.979633,0,0.0,0.0,0.0,
1690794341500157,2,1,0,14,50,1.64,1.49,2.73,1.71,-0.0,0.01,0.0,-0.02,0.0,0.0,0.0,6.51,0.53,1.91,1.74,3.55,1.68,3.55,1.69,1.91,1.75,3,0.8,0,28,0x804,100,3355.16,1370.74,2899.6,916.59,829.74,1,1,1,95.261818,0,0,0,2896.863525,956.11853,1783.560425,2899.595947,955.87085,1785.613403,3813.458496,954.278564,1783.96167,-1.0,-1.0,-1.0,-1.0,0,0.0,0.0,3,-1,0.0,0.0,2.73,1.71,2.73,1.71,0.0,0.0,0.0,0.0,2.65,1.61,2.65,1.61,0.0,0.0,0.0,0.0,0.997527,0.997527,0.0,0.0,0,-3.141593,0.0,0,0.0,0.0,0.0,
1690794341500157,2,1,0,0,166,1.79,1.53,0.15,11.46,0.08,-0.03,-0.01,0.23,-0.47,-0.12,-0.01,6.74,0.06,-0.74,15.77,-0.74,11.5,1.05,11.5,1.05,15.77,1,0.92,1,1,0x0,100,1858.84,1119.35,1724.09,269.5,231.17,1,2,2,94.776917,0,0,0,1724.093628,1003.763489,1234.931641,1724.093628,1003.763489,1234.931641,1993.594238,1003.518311,1233.440674,-1.0,-1.0,-1.0,-1.0,0,0.0,0.0,1,1,-0.12,0.23,0.15,11.41,0.15,11.46,-0.12,0.23,-0.01,-0.47,0.15,11.49,0.15,11.55,-0.13,0.23,-0.01,-0.48,0.941841,0.941841,0.001058,0.418079,1,0.000979,0.0,0,0.0,0.0,0.0,
1690794341500157,0,3,0,13,66,0.91,1.58,12.75,19.05,-0.03,0.17,0.0,-2.02,-0.0,0.03,0.0,4.59,0.53,12.3,19.06,13.21,19.03,13.21,19.04,12.3,19.07,0,0.0,0,22,0x400000,100,3032.39,1097.77,2990.16,85.47,148.04,1,-1,-1,86.235168,1,3,3,2989.653809,1023.759705,1171.728516,2990.156982,1023.748962,1171.787109,3075.126465,1023.598511,1171.63562,-1.0,-1.0,-1.0,-1.0,0,0.0,0.0,1,2,0.03,-1.92,12.69,18.94,12.59,18.77,0.04,-1.88,0.0,-0.0,13.74,20.65,13.85,20.85,-0.07,-2.2,0.0,-0.0,0.865683,0.865683,0.0,0.0,0,0.001279,0.0,0,0.0,0.0,0.0,
1690794341500157,2,1,0,4,166,1.79,1.61,6.77,22.11,-0.22,-0.13,-0.03,-0.31,-0.36,-0.3,-0.03,6.26,0.17,6.34,26.4,6.43,22.13,8.22,22.17,8.13,26.44,0,0.0,0,2,0x800,100,2398.38,1106.93,2369.3,231.77,133.33,1,2,1,94.934166,1,1,1,2282.497803,1041.258301,1154.5802,2369.302002,1040.268066,1173.598633,2514.269043,1040.036743,1172.751831,-1.0,-1.0,-1.0,-1.0,0,0.0,0.0,1,0,-0.3,-0.25,5.88,18.91,5.88,18.91,-0.3,-0.25,-0.03,-0.36,6.81,22.2,6.84,22.35,-0.3,-0.25,-0.03,-0.36,0.066987,0.066987,0.0,0.0,1,-0.022541,-0.0245,0,0.0,0.0,0.0,
1690794341500157,2,1,1,12,111,1.73,1.73,10.45,23.15,-0.18,0.01,0.02,-2.34,-0.32,-0.17,0.02,4.25,0.21,10.36,27.26,10.32,23.15,12.06,23.14,12.1,27.24,0,0.0,0,17,0x800,100,2663.47,1096.15,2651.55,246.22,136.85,1,2,1,95.923073,1,3,3,2540.361328,1030.374023,1148.123047,2651.546875,1027.721313,1164.573853,2786.585205,1027.518555,1164.085327,-1.0,-1.0,-1.0,-1.0,0,0.0,0.0,1,0,-0.17,-2.26,9.28,20.37,9.28,20.37,-0.17,-2.26,0.02,-0.32,10.55,23.41,10.55,23.39,-0.17,-2.26,0.02,-0.32,0.080387,0.080387,0.0,0.0,0,0.00959,0.008797,0,0.0,0.0,0.0,
1690794341500157,2,1,1,10,86,1.79,1.54,13.26,23.37,-0.23,-0.34,-0.04,-2.21,-0.4,-0.52,-0.04,4.4,0.14,13.95,27.59,13.4,23.36,15.17,23.13,15.73,27.36,0,0.0,0,20,0x1800,100,2897.89,1105.91,2880.74,257.08,119.9,1,2,1,95.344879,0,0,0,2769.347412,1046.015747,1148.873901,2880.73877,1045.962402,1165.861572,3026.429199,1045.710449,1166.365479,-1.0,-1.0,-1.0,-1.0,0,0.0,0.0,1,0,-0.52,-2.1,11.58,20.03,11.58,20.03,-0.52,-2.1,-0.04,-0.4,13.2,23.08,13.31,23.49,-0.52,-2.1,-0.04,-0.4,0.033,0.033,0.0,0.0,0,0.130199,0.207183,0,0.0,0.0,0.0,
1690794341500157,2,1,0,3,166,1.73,1.69,6.57,33.47,-0.12,-0.02,-0.02,-0.88,-0.47,-0.29,-0.02,5.68,0.06,6.01,37.61,6.03,33.49,7.76,33.5,7.73,37.62,0,0.0,0,6,0x800,100,2205.88,1079.73,2175.95,132.71,95.27,1,2,1,94.544975,0,0,0,2139.52002,1033.629272,1118.993896,2175.94751,1032.101929,1127.367798,2272.231445,1031.962036,1127.018188,-1.0,-1.0,-1.0,-1.0,0,0.0,0.0,1,0,-0.29,-0.83,6.08,30.89,6.08,30.89,-0.29,-0.83,-0.02,-0.47,6.58,33.6,6.58,33.5,-0.29,-0.83,-0.02,-0.47,0.0087,0.0087,0.0,0.0,0,-0.005279,-0.009131,0,0.0,0.0,0.0,
1690794341500157,2,1,3,8,16,0.7,1.45,12.79,34.25,-0.13,-5.96,-0.0,-1.01,-0.12,-6.23,-0.0,5.6,0.41,12.29,35.55,13.32,34.23,13.87,34.65,12.84,35.98,0,0.0,0,30,0x1A00,100,2536.52,1085.4,2565.55,100.05,79.44,1,2,1,90.35498,1,2,2,2486.499268,1045.819458,1122.56311,2565.548828,1045.685303,1125.124146,2586.550293,1045.645874,1124.120239,-1.0,-1.0,-1.0,-1.0,0,0.0,0.0,1,0,-6.23,-0.91,11.74,31.33,11.74,31.33,-6.23,-0.91,-0.0,-0.12,12.61,33.78,12.74,34.26,-6.23,-0.91,-0.0,-0.12,0.003857,0.003857,0.0,0.0,0,-0.540641,-0.540641,0,0.0,0.0,0.0,
1690794341500157,2,1,0,1,166,1.73,1.46,3.45,35.62,-0.08,-0.11,-0.06,-0.57,-0.91,-0.39,-0.06,5.97,-0.37,2.88,39.7,2.66,35.65,4.39,35.56,4.61,39.6,0,0.0,0,5,0x800,100,2022.48,1082.3,1978.08,95.86,78.0,1,2,1,91.006699,1,3,3,1974.546875,1043.624634,1114.016479,1978.083618,1043.30188,1121.306152,2070.408691,1043.136108,1121.186035,-1.0,-1.0,-1.0,-1.0,0,0.0,0.0,1,0,-0.39,-0.54,3.22,32.84,3.22,32.84,-0.39,-0.54,-0.06,-0.91,3.45,35.29,3.45,35.63,-0.39,-0.54,-0.06,-0.91,0.003366,0.003366,0.0,0.0,0,0.052848,0.039961,0,0.0,0.0,0.0,
1690794341500157,2,1,0,7,146,1.64,1.45,5.59,40.15,0.04,-0.1,-0.05,-0.89,-0.46,-0.41,-0.05,5.67,0.07,4.78,40.3,6.41,40.11,6.89,44.36,5.26,44.54,0,0.0,0,13,0x800,100,2101.29,1072.95,2062.23,78.27,68.65,1,2,2,92.834389,1,3,3,2062.150879,1039.34021,1101.693604,2062.227783,1038.62854,1107.275146,2140.421143,1038.467773,1107.307861,-1.0,-1.0,-1.0,-1.0,0,0.0,0.0,1,0,-0.41,-0.84,5.59,40.19,5.59,40.19,-0.41,-0.84,-0.05,-0.46,5.43,39.02,5.43,40.15,-0.41,-0.84,-0.05,-0.46,0.0,0.0,0.0,0.0,0,0.084365,0.112617,0,0.0,0.0,0.0,
1690794341500157,2,1,2,9,65,1.81,1.06,3.44,42.72,0.75,-1.79,-0.11,-28.25,0.42,-2.13,-0.11,-21.71,0.96,2.48,42.8,4.4,42.68,4.66,46.95,2.73,47.06,0,0.0,0,23,0x3821,100,1990.14,1048.45,1947.04,86.21,47.47,1,2,2,85.04686,1,3,3,1947.035034,1024.708374,1072.183228,1947.035034,1024.708374,1072.183228,2033.242065,1024.536621,1072.051758,-1.0,-1.0,-1.0,-1.0,0,0.0,0.0,1,2,-2.13,-28.22,7.85,105.88,7.85,105.88,-2.13,-28.22,-0.11,0.42,3.39,44.67,3.44,42.72,-2.13,-28.22,-0.11,0.42,0.0,0.0,0.0,0.0,0,0.063156,0.056558,0,0.0,0.0,0.0,
1690794341500157,2,1,0,2,25,1.06,1.45,10.68,45.9,-0.09,0.56,0.01,0.88,-0.3,0.2,0.01,7.47,0.23,10.18,46.1,11.21,45.88,12.1,50.06,11.07,50.28,0,0.0,0,29,0xC00,100,2280.38,1074.73,2258.11,44.54,60.1,1,2,2,84.821938,1,3,3,2258.10791,1044.678589,1104.782715,2258.10791,1044.678589,1104.782715,2302.645508,1044.594482,1104.921143,-1.0,-1.0,-1.0,-1.0,0,0.0,0.0,1,0,0.2,0.96,9.99,42.87,9.99,42.87,0.2,0.96,0.01,-0.3,10.84,46.64,10.78,45.9,0.2,0.96,0.01,-0.3,0.0,0.0,0.0,0.0,0,0.209634,0.209634,0,0.0,0.0,0.0,
1690794341500157,2,1,1,6,11,1.79,0.67,13.53,46.78,1.17,0.79,0.02,-7.17,0.01,0.42,0.02,-0.56,0.54,13.17,51.07,13.18,46.79,14.97,46.8,14.96,51.08,0,0.0,0,32,0x920,0,2386.96,1038.28,2372.78,115.44,27.47,1,2,1,95.953522,1,2,2,2329.242188,1026.328735,1051.60022,2372.780762,1024.547729,1052.016479,2444.678711,1024.453857,1051.878784,-1.0,-1.0,-1.0,-1.0,0,0.0,0.0,4,0,0.42,-7.07,22.17,90.81,13.53,46.78,0.42,-7.07,0.02,0.01,22.64,92.77,13.53,46.78,0.42,-7.07,0.02,0.01,0.0,0.0,0.0,0.0,0,-0.003705,-0.003705,1,0.0,0.0,0.0,
1690794341500157,2,1,0,5,166,1.79,1.45,15.48,54.03,0.47,1.88,0.32,0.62,0.18,1.46,0.32,7.25,0.71,15.21,58.24,15.88,54.01,17.64,54.29,16.97,58.52,0,0.0,0,9,0x1800,100,2397.8,1050.46,2398.92,119.85,51.38,1,0,1,52.268948,1,3,3,2337.874268,1026.331299,1074.161743,2398.919678,1024.769409,1076.152954,2457.722168,1024.7948,1075.86084,-1.0,-1.0,-1.0,-1.0,0,0.0,0.0,2,0,1.46,0.74,21.42,75.55,21.42,75.55,1.46,0.74,0.32,0.18,11.82,40.87,15.12,54.03,1.46,0.74,0.32,0.18,0.0,0.0,0.0,0.0,0,2.988485,-0.038005,0,0.0,0.0,0.0,
1690794341500157,2,1,0,11,156,0.35,1.45,11.62,72.03,-0.29,-0.0,-0.12,-0.96,-1.07,-0.57,-0.12,5.64,-0.54,10.64,72.26,12.62,71.98,13.23,76.21,11.26,76.49,0,0.0,0,11,0x1800,100,2149.15,1070.26,2122.19,53.92,38.98,1,2,2,61.993156,1,3,3,2122.185547,1050.772095,1089.749634,2122.185547,1050.772095,1089.749634,2176.105225,1050.688965,1089.776367,-1.0,-1.0,-1.0,-1.0,0,0.0,0.0,2,0,-0.57,-0.87,10.14,62.59,10.14,62.59,-0.57,-0.87,-0.12,-1.07,11.13,68.83,11.62,72.03,-0.57,-0.87,-0.12,-1.07,0.0,0.0,0.0,0.0,0,-0.885384,-0.702715,0,0.0,0.0,0.0,
1690794342000177,2,1,0,14,65,1.74,1.62,2.68,1.71,-0.0,0.02,0.0,-0.03,0.0,0.0,0.0,6.82,0.53,1.81,1.74,3.55,1.67,3.55,1.68,1.81,1.75,3,0.79,0,28,0x804,100,3328.87,1336.93,2844.49,973.91,899.8,1,1,1,95.589905,0,0,0,2841.914551,887.46167,1784.771484,2844.494629,887.02417,1786.825928,3815.825684,885.319092,1785.051025,-1.0,-1.0,-1.0,-1.0,0,0.0,0.0,3,-1,0.0,0.0,2.68,1.71,2.68,1.71,0.0,0.0,0.0,0.0,2.4,1.34,2.4,1.34,0.0,0.0,0.0,0.0,0.997527,0.997527,0.0,0.0,0,-3.141593,0.0,0,0.0,0.0,0.0,
1690794342000177,2,1,0,0,181,1.75,1.51,0.17,11.95,0.08,0.03,-0.01,0.42,-0.15,-0.1,-0.01,7.24,0.38,-0.71,16.26,-0.71,11.99,1.04,11.99,1.04,16.26,1,0.92,1,1,0x0,100,1860.2,1119.91,1732.85,254.72,220.01,1,2,2,94.742973,0,0,0,1732.845581,1009.902893,1229.916748,1732.845581,1009.902893,1229.916748,1987.562012,1009.640015,1228.532715,-1.0,-1.0,-1.0,-1.0,0,0.0,0.0,1,1,-0.1,0.42,0.17,12.1,0.17,11.92,-0.1,0.42,-0.01,-0.15,0.17,12.27,0.17,12.25,-0.1,0.43,-0.01,-0.15,0.896926,0.896926,0.000993,0.406636,1,0.001636,0.0,0,0.0,0.0,0.0,
1690794342000177,0,3,0,13,81,1.12,1.51,13.82,19.18,-0.01,1.11,0.0,-1.14,-0.0,0.9,0.0,5.83,0.53,13.21,19.2,14.33,19.16,14.33,19.17,13.21,19.21,0,0.0,0,22,0x400000,100,3117.33,1099.82,3065.7,104.33,140.85,1,-1,-1,92.709976,1,3,3,3065.164307,1029.39917,1170.183716,3065.69873,1029.390747,1170.240723,3169.490723,1029.204834,1170.053711,-1.0,-1.0,-1.0,-1.0,0,0.0,0.0,1,2,0.9,-0.98,13.87,19.33,13.55,18.77,0.9,-0.92,0.0,-0.0,15.46,21.76,14.8,20.64,0.89,-1.23,0.0,-0.0,0.783628,0.783628,0.0,0.0,0,0.001972,0.0,0,0.0,0.0,0.0,
1690794342000177,2,1,1,12,126,1.73,1.73,10.53,21.71,-0.18,0.19,0.04,-2.61,-0.33,-0.05,0.04,4.32,0.2,10.48,25.84,10.48,21.72,12.21,21.72,12.2,25.84,0,0.0,0,17,0x800,100,2719.84,1100.01,2713.77,271.3,144.83,1,2,1,95.814796,1,1,1,2584.196533,1030.551025,1154.093872,2713.769043,1027.592041,1172.419678,2855.491455,1027.394287,1171.783325,-1.0,-1.0,-1.0,-1.0,0,0.0,0.0,1,0,-0.05,-2.49,9.37,19.12,9.37,19.12,-0.05,-2.49,0.04,-0.33,10.66,22.0,10.69,22.07,-0.05,-2.49,0.04,-0.33,0.119584,0.119584,0.0,0.0,0,-0.001836,0.001714,0,0.0,0.0,0.0,
1690794342000177,2,1,0,4,181,1.79,1.6,6.85,21.87,-0.21,0.05,-0.0,-0.53,-0.36,-0.2,-0.0,6.36,0.17,6.4,26.17,6.52,21.89,8.31,21.93,8.2,26.21,0,0.0,0,2,0x800,100,2409.33,1107.99,2381.37,237.26,133.85,1,2,1,95.814796,1,3,3,2290.703857,1042.090088,1155.638306,2381.371582,1041.061157,1174.91333,2527.962402,1040.82666,1174.017212,-1.0,-1.0,-1.0,-1.0,0,0.0,0.0,1,0,-0.2,-0.46,5.97,18.85,5.97,18.85,-0.2,-0.46,-0.0,-0.36,6.93,22.17,6.92,22.1,-0.2,-0.46,-0.0,-0.36,0.068813,0.068813,0.0,0.0,1,-0.026133,-0.037486,0,0.0,0.0,0.0,
1690794342000177,2,1,0,10,101,1.79,1.52,14.17,23.48,-0.2,0.71,0.13,-1.37,-0.19,0.44,0.13,5.61,0.35,14.87,27.64,13.84,23.49,15.58,23.06,16.61,27.21,0,0.0,0,20,0x800,100,2944.43,1104.87,2909.2,233.13,117.86,1,2,1,94.313843,0,0,0,2827.865723,1046.068604,1147.468018,2909.201172,1045.936523,1163.79834,3060.998535,1045.665771,1165.194336,-1.0,-1.0,-1.0,-1.0,0,0.0,0.0,1,0,0.44,-1.21,12.26,20.65,12.26,20.65,0.44,-1.21,0.13,-0.19,14.38,24.52,14.17,23.48,0.44,-1.21,0.13,-0.19,0.0,0.0,0.0,0.0,0,0.174214,0.382844,0,0.0,0.0,0.0,
1690794342000177,2,1,0,3,181,1.75,1.69,6.64,32.69,-0.1,0.12,-0.01,-1.38,-0.53,-0.25,-0.01,5.51,0.0,6.07,36.88,6.12,32.71,7.86,32.74,7.82,36.9,0,0.0,0,6,0x800,100,2218.28,1080.82,2188.72,139.62,97.43,1,2,1,93.744019,0,0,0,2148.468506,1033.787109,1120.786865,2188.716553,1032.109131,1129.539429,2288.092773,1031.969727,1129.147461,-1.0,-1.0,-1.0,-1.0,0,0.0,0.0,1,0,-0.25,-1.31,6.19,30.4,6.19,30.4,-0.25,-1.31,-0.01,-0.53,6.65,32.8,6.64,32.72,-0.25,-1.31,-0.01,-0.53,0.009794,0.009794,0.0,0.0,0,-0.011603,-0.018236,0,0.0,0.0,0.0,
1690794342000177,2,1,0,8,31,1.28,1.45,12.98,33.81,-0.13,-2.23,-0.0,-1.07,-0.12,-2.61,-0.0,5.89,0.41,12.91,36.88,12.79,33.82,14.07,33.77,14.19,36.83,0,0.0,0,30,0x1800,100,2555.8,1087.18,2544.94,120.53,80.37,1,2,1,91.964256,1,2,2,2495.530029,1047.047119,1121.112549,2544.944824,1046.997925,1127.36499,2616.061035,1046.870361,1127.234863,-1.0,-1.0,-1.0,-1.0,0,0.0,0.0,1,0,-2.61,-0.92,12.02,31.21,12.02,31.21,-2.61,-0.92,-0.0,-0.12,13.11,34.19,12.98,33.82,-2.61,-0.92,-0.0,-0.12,0.003663,0.003663,0.0,0.0,0,0.042366,0.042366,0,0.0,0.0,0.0,
1690794342000177,2,1,0,1,181,1.57,1.46,3.51,35.13,-0.09,0.05,-0.04,-1.1,-0.92,-0.34,-0.04,5.76,-0.39,3.06,38.76,2.9,35.16,4.47,35.09,4.62,38.7,0,0.0,0,5,0x800,100,2032.01,1084.71,1992.85,90.87,78.62,1,2,1,90.902252,1,3,3,1986.577393,1045.597168,1117.227417,1992.852661,1045.401001,1124.019165,2077.449951,1045.249023,1123.876709,-1.0,-1.0,-1.0,-1.0,0,0.0,0.0,1,0,-0.34,-1.06,3.31,32.86,3.31,32.86,-0.34,-1.06,-0.04,-0.92,3.51,35.0,3.52,35.14,-0.34,-1.06,-0.04,-0.92,0.003481,0.003481,0.0,0.0,0,0.043048,0.039957,0,0.0,0.0,0.0,
1690794342000177,2,1,2,9,80,1.66,1.06,2.85,36.9,0.75,-1.25,-0.01,-22.04,1.66,-1.66,-0.01,-15.19,2.19,2.02,36.96,3.68,36.87,3.91,41.13,2.26,41.23,0,0.0,0,23,0x3021,100,1982.96,1049.84,1940.22,85.48,54.63,1,2,2,82.893883,1,3,3,1940.217407,1022.524902,1077.156494,1940.217407,1022.524902,1077.156494,2025.696777,1022.355286,1077.021973,-1.0,-1.0,-1.0,-1.0,0,0.0,0.0,1,2,-1.66,-22.0,7.58,101.3,7.58,101.3,-1.66,-22.0,-0.01,1.66,3.33,43.46,3.27,36.88,-1.66,-22.0,-0.01,1.66,0.0,0.0,0.0,0.0,0,0.062996,0.055247,0,0.0,0.0,0.0,
1690794342000177,2,1,1,7,161,1.66,1.45,5.57,38.59,0.07,0.14,-0.02,-1.94,-0.64,-0.29,-0.02,4.94,-0.1,5.12,42.57,4.82,38.62,6.48,38.49,6.78,42.45,0,0.0,0,13,0x800,100,2111.04,1073.26,2073.79,89.9,71.48,1,2,1,93.82373,1,3,3,2066.090088,1038.407715,1103.526978,2073.787354,1037.52063,1109.005127,2155.985352,1037.358887,1108.947266,-1.0,-1.0,-1.0,-1.0,0,0.0,0.0,1,0,-0.29,-1.88,5.7,39.18,5.7,39.18,-0.29,-1.88,-0.02,-0.64,5.46,37.45,5.57,38.59,-0.29,-1.88,-0.02,-0.64,0.0,0.0,0.0,0.0,0,0.094332,0.069935,0,0.0,0.0,0.0,
1690794342000177,2,1,1,6,26,1.79,0.67,12.58,42.45,1.09,-0.13,-0.05,-8.4,-0.01,-0.6,-0.05,-1.44,0.52,12.16,46.73,12.33,42.46,14.12,42.53,13.95,46.8,0,0.0,0,32,0x1D20,100,2398.69,1042.4,2387.32,133.01,29.87,1,2,1,95.031891,1,3,3,2332.187744,1029.237183,1056.515625,2387.317871,1027.459961,1057.334473,2465.199707,1027.382568,1057.160278,-1.0,-1.0,-1.0,-1.0,0,0.0,0.0,1,0,-0.6,-8.26,62.05,206.39,62.05,206.39,-0.6,-8.26,-0.05,-0.01,10.27,32.62,12.58,42.45,-0.6,-8.26,-0.05,-0.01,0.0,0.0,0.0,0.0,1,-0.009973,0.062679,0,0.0,0.0,0.0,
1690794342000177,2,1,0,2,40,1.13,1.45,11.35,47.41,-0.1,1.14,0.04,1.78,-0.25,0.61,0.04,8.72,0.28,10.82,47.63,11.92,47.39,12.84,51.57,11.73,51.81,0,0.0,0,29,0x1800,100,2293.59,1075.12,2270.41,46.41,58.23,1,2,2,82.190346,1,3,3,2270.384766,1046.078247,1099.768066,2270.408203,1046.001587,1104.22937,2316.793457,1045.914429,1104.373779,-1.0,-1.0,-1.0,-1.0,0,0.0,0.0,1,0,0.61,1.9,10.46,43.57,10.46,43.57,0.61,1.9,0.04,-0.25,11.28,47.15,11.62,47.4,0.61,1.9,0.04,-0.25,0.0,0.0,0.0,0.0,0,0.215355,0.215355,0,0.0,0.0,0.0,
1690794342000177,2,1,0,5,15,2.14,1.45,23.06,91.68,0.08,2.09,0.05,4.19,0.01,1.07,0.05,11.26,0.54,22.07,92.13,24.15,91.64,25.14,95.8,23.06,96.29,0,0.0,0,34,0x1800,100,2325.09,1057.9,2302.03,46.12,30.61,1,2,2,94.040779,1,3,3,2302.031494,1042.599121,1073.20752,2302.031494,1042.599121,1073.20752,2348.146729,1042.497559,1073.238525,-1.0,-1.0,-1.0,-1.0,0,0.0,0.0,1,0,1.07,4.45,27.39,109.27,27.39,109.27,1.07,4.45,0.05,0.01,26.75,106.67,25.18,91.6,1.07,4.45,0.05,0.01,0.0,0.0,0.0,0.0,0,0.233281,0.233281,0,0.0,0.0,0.0,
1690794342499841,2,1,0,14,80,1.73,1.62,2.66,1.68,-0.0,0.02,0.0,-0.03,0.0,0.0,0.0,7.11,0.44,1.8,1.72,3.53,1.65,3.53,1.66,1.8,1.73,3,0.77,0,28,0x804,100,3331.08,1333.89,2845.76,975.84,905.17,1,1,1,95.383728,0,0,0,2843.156738,881.749512,1784.393555,2845.758789,881.307373,1786.476562,3818.995117,879.698364,1784.805054,-1.0,-1.0,-1.0,-1.0,0,0.0,0.0,3,-1,0.0,0.0,2.67,1.68,2.67,1.68,0.0,0.0,0.0,0.0,2.39,1.32,2.39,1.32,0.0,0.0,0.0,0.0,0.997527,0.997527,0.0,0.0,0,-3.141593,0.0,0,0.0,0.0,0.0,
1690794342499841,2,1,0,0,196,1.75,1.56,0.2,12.44,0.07,0.05,-0.0,-0.04,-0.33,-0.09,-0.0,7.08,0.11,-0.68,16.75,-0.68,12.47,1.08,12.47,1.08,16.75,1,0.92,1,1,0x0,100,1864.11,1108.94,1741.17,245.89,219.52,1,2,2,94.728355,0,0,0,1741.166748,999.177246,1218.697388,1741.166748,999.177246,1218.697388,1987.056396,998.97583,1217.41626,-1.0,-1.0,-1.0,-1.0,0,0.0,0.0,1,1,-0.09,-0.04,0.2,12.44,0.2,12.42,-0.09,-0.04,-0.0,-0.33,0.2,12.77,0.2,12.61,-0.09,-0.04,-0.0,-0.34,0.894711,0.894711,0.000127,0.054724,1,0.001592,0.0,0,0.0,0.0,0.0,
1690794342499841,2,1,1,12,141,1.78,1.72,10.21,19.11,-0.15,-0.06,-0.0,-3.68,-0.41,-0.27,-0.0,3.55,0.03,10.33,23.34,10.29,19.1,12.07,19.09,12.11,23.32,0,0.0,0,17,0x800,100,2806.85,1099.09,2803.68,321.75,161.67,1,2,1,96.138908,1,3,3,2645.978271,1022.254028,1157.084229,2803.682129,1018.255371,1179.921021,2967.725342,1018.037231,1179.283203,-1.0,-1.0,-1.0,-1.0,0,0.0,0.0,1,1,-0.27,-3.56,9.27,17.13,9.34,17.3,-0.21,-3.53,0.01,-0.32,10.42,19.48,10.51,19.73,-0.29,-3.57,-0.01,-0.44,0.256376,0.256376,0.0,0.0,0,0.008938,0.014019,0,0.0,0.0,0.0,
1690794342499841,0,3,4,13,96,1.16,1.52,15.68,19.8,0.06,2.54,0.0,-0.01,-0.0,2.32,0.0,7.28,0.44,15.03,19.83,16.19,19.78,16.19,19.79,15.03,19.84,0,0.0,0,22,0x400000,100,3242.02,1085.98,3190.0,105.18,137.01,1,-1,-1,86.453934,1,1,1,3189.427734,1017.482971,1154.436279,3190.000977,1017.471863,1154.486816,3294.604492,1017.295654,1154.30957,-1.0,-1.0,-1.0,-1.0,0,0.0,0.0,1,2,2.32,0.16,16.64,21.23,15.42,19.45,2.42,0.37,0.0,-0.0,17.44,22.34,16.36,20.76,2.04,-0.39,0.0,-0.0,0.727604,0.727604,0.0,0.0,0,0.001957,0.0,0,0.0,0.0,0.0,
1690794342499841,2,1,0,4,196,1.75,1.66,6.98,21.57,-0.26,0.17,0.03,-0.57,-0.24,-0.07,0.03,6.62,0.19,6.63,25.75,6.77,21.58,8.52,21.64,8.38,25.81,0,0.0,0,2,0x800,100,2433.71,1105.71,2409.73,240.26,140.24,1,2,1,95.340538,1,3,3,2313.573975,1036.634521,1155.845581,2409.734375,1035.594238,1175.835693,2553.837891,1035.383179,1174.863037,-1.0,-1.0,-1.0,-1.0,0,0.0,0.0,1,0,-0.07,-0.49,5.94,17.86,5.94,17.86,-0.07,-0.49,0.03,-0.24,7.13,21.81,7.09,21.96,-0.07,-0.49,0.03,-0.24,0.09516,0.09516,0.0,0.0,1,-0.033688,-0.02263,0,0.0,0.0,0.0,
1690794342499841,2,1,0,10,116,1.79,1.52,14.65,23.71,-0.23,0.89,0.15,-0.69,0.05,0.63,0.15,6.59,0.49,15.37,27.87,14.32,23.73,16.05,23.29,17.1,27.43,0,0.0,0,20,0x1800,100,2969.12,1101.79,2934.99,233.53,116.68,1,2,1,88.433929,0,0,0,2852.351562,1043.195923,1143.730713,2934.986816,1043.453979,1160.133179,3085.881104,1043.240723,1161.595825,-1.0,-1.0,-1.0,-1.0,0,0.0,0.0,1,0,0.63,-0.53,12.19,19.5,12.19,19.5,0.63,-0.53,0.15,0.05,14.68,23.85,14.65,23.71,0.63,-0.53,0.15,0.05,0.0,0.0,0.0,0.0,0,0.179445,0.50636,0,0.0,0.0,0.0,
1690794342499841,2,1,1,3,196,1.64,1.7,6.57,31.2,-0.08,-0.01,-0.03,-2.28,-0.58,-0.35,-0.03,4.9,-0.14,6.06,35.14,6.12,31.22,7.76,31.24,7.7,35.16,0,0.0,0,6,0x800,100,2232.23,1075.23,2204.39,139.63,102.29,1,2,1,94.386726,0,0,0,2162.409424,1026.02063,1117.520264,2204.385742,1024.082275,1126.374756,2302.043213,1023.965271,1125.981323,-1.0,-1.0,-1.0,-1.0,0,0.0,0.0,1,0,-0.35,-2.21,6.25,29.55,6.25,29.55,-0.35,-2.21,-0.03,-0.58,6.57,31.14,6.57,31.22,-0.35,-2.21,-0.03,-0.58,0.012784,0.012784,0.0,0.0,0,-0.0147,-0.003239,0,0.0,0.0,0.0,
1690794342499841,2,1,2,6,41,1.79,1.3,11.3,33.92,0.49,-1.3,-0.14,-12.03,-0.02,-1.67,-0.14,-4.79,0.42,11.23,38.19,10.75,33.94,12.53,33.74,13.01,37.99,0,0.0,0,32,0x1821,100,2461.75,1051.66,2430.89,139.97,71.99,1,2,1,83.615356,1,2,2,2391.766846,1018.450134,1082.845703,2430.885742,1015.669556,1087.657959,2531.739258,1015.407593,1087.652344,-1.0,-1.0,-1.0,-1.0,0,0.0,0.0,1,2,-1.67,-11.91,17.79,53.53,17.79,53.53,-1.67,-11.91,-0.14,-0.02,10.99,32.39,11.3,33.92,-1.67,-11.91,-0.14,-0.02,0.0,0.0,0.0,0.0,1,0.043268,0.147312,0,0.0,0.0,0.0,
1690794342499841,2,1,0,1,196,1.53,1.45,3.56,34.11,-0.05,0.05,-0.04,-1.85,-0.9,-0.33,-0.04,5.3,-0.46,3.16,37.63,3.01,34.14,4.54,34.07,4.69,37.56,0,0.0,0,5,0x800,100,2042.14,1078.33,2003.34,92.42,80.39,1,2,1,91.580894,1,3,3,1995.925537,1038.499512,1111.782227,2003.344604,1038.13208,1118.524658,2088.345459,1037.988403,1118.38623,-1.0,-1.0,-1.0,-1.0,0,0.0,0.0,1,0,-0.33,-1.82,3.46,32.92,3.46,32.92,-0.33,-1.82,-0.04,-0.9,3.59,34.17,3.56,34.12,-0.33,-1.82,-0.04,-0.9,0.00384,0.00384,0.0,0.0,0,0.041662,0.039961,0,0.0,0.0,0.0,
1690794342499841,2,1,0,8,46,1.55,1.45,13.72,34.31,-0.16,-0.39,-0.0,-0.85,-0.03,-0.77,-0.0,6.42,0.41,13.25,37.79,13.11,34.34,14.65,34.28,14.79,37.73,0,0.0,0,30,0x1800,100,2566.74,1082.56,2552.0,139.2,79.31,1,2,1,93.020508,1,3,3,2497.143066,1042.856445,1115.317139,2551.995117,1042.90918,1122.218018,2636.34375,1042.766846,1122.076172,-1.0,-1.0,-1.0,-1.0,0,0.0,0.0,1,0,-0.77,-0.7,12.13,30.11,12.13,30.11,-0.77,-0.7,-0.0,-0.03,13.71,34.26,13.73,34.33,-0.77,-0.7,-0.0,-0.03,0.003616,0.003616,0.0,0.0,0,0.040297,0.040018,0,0.0,0.0,0.0,
1690794342499841,2,1,1,7,176,1.66,1.45,5.56,36.94,0.1,0.05,-0.03,-2.74,-0.65,-0.35,-0.03,4.44,-0.21,5.12,40.92,4.8,36.97,6.46,36.84,6.78,40.79,0,0.0,0,13,0x800,100,2121.77,1067.74,2082.85,93.58,74.48,1,2,1,90.35498,1,1,1,2074.98584,1031.574097,1099.170654,2082.848389,1030.497314,1104.978516,2168.5625,1030.332642,1104.943359,-1.0,-1.0,-1.0,-1.0,0,0.0,0.0,1,0,-0.35,-2.68,5.92,39.28,5.92,39.28,-0.35,-2.68,-0.03,-0.65,5.56,36.75,5.56,36.94,-0.35,-2.68,-0.03,-0.65,0.0,0.0,0.0,0.0,0,0.099563,0.046744,0,0.0,0.0,0.0,
1690794342499841,2,1,5,2,7,1.38,1.45,10.22,40.46,0.04,0.56,0.0,2.01,0.09,0.12,0.0,9.24,0.53,9.58,40.74,10.92,40.43,11.87,44.6,10.52,44.91,0,0.0,0,39,0x800,100,2315.67,1068.01,2282.83,65.68,67.62,1,2,2,86.938225,1,3,3,2282.833984,1034.198975,1101.814819,2282.833984,1034.198975,1101.814819,2348.516113,1034.044189,1102.057007,-1.0,-1.0,-1.0,-1.0,0,0.0,0.0,1,0,0.12,2.12,10.92,43.38,10.92,43.38,0.12,2.12,0.0,0.09,11.09,44.06,11.01,40.43,0.12,2.12,0.0,0.09,0.0,0.0,0.0,0.0,0,0.222672,0.222672,0,0.0,0.0,0.0,
1690794342499841,2,1,1,9,95,2.14,1.06,3.32,41.14,0.8,-0.36,0.15,-9.71,4.25,-0.81,0.15,-2.56,4.69,2.26,41.22,4.39,41.1,4.64,45.37,2.5,45.49,0,0.0,0,23,0x3820,100,1990.53,1041.88,1940.94,99.18,49.21,1,2,2,97.637817,1,3,3,1940.936768,1017.275146,1066.481079,1940.936768,1017.275146,1066.481079,2040.114868,1017.087158,1066.333374,-1.0,-1.0,-1.0,-1.0,0,0.0,0.0,1,1,-0.81,-9.67,10.25,130.71,10.25,130.71,-0.81,-9.67,0.15,4.25,4.01,50.05,3.7,41.13,-0.81,-9.67,0.15,4.25,0.0,0.0,0.0,0.0,0,0.053889,0.056769,0,0.0,0.0,0.0,
1690794342499841,2,1,0,5,14,1.82,1.45,29.37,113.34,-0.04,1.41,0.01,2.6,0.1,0.17,0.01,10.04,0.53,28.52,113.74,30.3,113.3,31.32,117.46,29.54,117.89,0,0.0,0,37,0x800,100,2341.26,1052.66,2325.3,32.1,24.87,1,2,2,73.64006,1,3,3,2325.213867,1040.277344,1064.282471,2325.301758,1040.229492,1065.097168,2357.311523,1040.171143,1065.116455,-1.0,-1.0,-1.0,-1.0,0,0.0,0.0,2,2,0.17,2.92,29.57,114.19,29.57,114.19,0.17,2.92,0.01,0.1,30.12,116.35,29.31,113.35,0.17,2.92,0.01,0.1,0.0,0.0,0.0,0.0,0,0.240875,0.243345,0,0.0,0.0,0.0,
1690794342999991,2,1,0,14,95,1.69,1.55,2.76,1.77,-0.0,0.02,0.0,-0.03,0.0,0.0,0.0,7.36,0.47,1.91,1.8,3.61,1.73,3.61,1.74,1.91,1.81,3,0.8,0,28,0x804,100,3348.61,1354.15,2885.61,931.31,846.87,1,1,1,95.366501,0,0,0,2882.957031,931.033752,1775.599365,2885.607178,930.712769,1777.587158,3814.265137,929.028931,1775.836426,-1.0,-1.0,-1.0,-1.0,0,0.0,0.0,3,-1,0.0,0.0,2.76,1.77,2.76,1.77,0.0,0.0,0.0,0.0,2.59,1.54,2.59,1.54,0.0,0.0,0.0,0.0,0.997527,0.997527,0.0,0.0,0,-3.141593,0.0,0,0.0,0.0,0.0,
1690794342999991,2,1,0,0,211,1.78,1.55,0.24,12.45,0.07,0.05,-0.0,-0.17,-0.4,-0.07,-0.0,7.2,0.07,-0.65,16.76,-0.65,12.49,1.13,12.49,1.13,16.76,1,0.92,1,1,0x0,100,1869.9,1117.38,1745.38,249.03,218.32,1,2,2,95.077789,0,0,0,1745.381104,1008.220154,1226.537842,1745.381104,1008.220154,1226.537842,1994.409912,1007.971436,1225.201172,-1.0,-1.0,-1.0,-1.0,0,0.0,0.0,1,2,-0.07,-0.16,0.24,12.43,0.24,12.43,-0.07,-0.16,-0.0,-0.39,0.24,12.59,0.24,12.65,-0.07,-0.17,-0.0,-0.41,0.888175,0.888175,-0.000172,-0.073039,1,0.001383,0.0,0,0.0,0.0,0.0,
1690794342999991,2,1,1,12,156,1.79,1.76,10.65,17.76,-0.17,0.04,0.03,-3.93,-0.47,-0.12,0.03,3.53,0.0,10.75,22.02,10.71,17.76,12.5,17.74,12.53,22.01,0,0.0,0,17,0x800,100,2905.39,1110.67,2910.93,362.24,176.2,1,2,1,94.519737,1,3,3,2724.26709,1027.480713,1172.671021,2910.932129,1022.568481,1198.766602,3086.51123,1022.32019,1198.001831,-1.0,-1.0,-1.0,-1.0,0,0.0,0.0,1,1,-0.12,-3.83,9.56,15.74,9.56,15.74,-0.12,-3.83,0.03,-0.47,10.62,17.7,10.65,17.76,-0.12,-3.83,0.03,-0.47,0.0,0.0,0.0,0.0,0,0.007321,-0.017315,0,0.0,0.0,0.0,
1690794342999991,0,3,4,13,111,1.43,1.73,17.26,19.54,0.06,3.0,0.0,-0.3,-0.0,2.82,0.0,7.22,0.47,16.51,19.57,17.94,19.51,17.94,19.52,16.51,19.58,0,0.0,0,22,0x400000,100,3402.34,1084.39,3337.62,130.73,157.62,1,-1,-1,83.250916,1,1,1,3336.976562,1005.606995,1163.151123,3337.622314,1005.586731,1163.202393,3467.701904,1005.346619,1162.960571,-1.0,-1.0,-1.0,-1.0,0,0.0,0.0,1,2,2.82,-0.14,18.45,21.06,17.3,19.59,2.95,0.02,0.0,-0.0,16.88,19.12,16.7,18.92,1.06,-2.43,0.0,-0.0,0.933208,0.933208,0.0,0.0,0,0.001757,0.0,0,0.0,0.0,0.0,
1690794342999991,2,1,0,4,211,1.77,1.64,7.06,20.64,-0.23,0.19,0.04,-1.11,-0.36,-0.0,0.04,6.32,0.11,6.68,24.89,6.8,20.65,8.58,20.7,8.45,24.94,0,0.0,0,2,0x800,100,2460.74,1114.32,2436.4,256.03,144.88,1,2,1,95.602242,1,3,3,2332.723633,1043.259399,1165.372559,2436.398193,1041.876953,1186.754883,2588.757324,1041.636475,1185.72876,-1.0,-1.0,-1.0,-1.0,0,0.0,0.0,1,1,-0.0,-1.05,6.08,17.47,6.08,17.47,-0.0,-1.05,0.04,-0.36,7.16,20.91,7.19,21.07,-0.0,-1.05,0.04,-0.36,0.119585,0.119585,0.0,0.0,1,-0.029621,-0.032365,0,0.0,0.0,0.0,
1690794342999991,2,1,1,6,56,1.83,1.83,10.62,27.23,-0.04,-1.3,-0.1,-11.52,0.23,-1.55,-0.1,-4.06,0.7,9.55,31.54,9.36,27.28,11.19,27.2,11.38,31.46,0,0.0,0,32,0x1800,100,2500.35,1080.55,2473.0,194.08,124.11,1,2,1,92.441521,0,0,0,2403.311523,1022.534729,1130.918335,2472.995605,1018.495361,1142.609741,2597.390381,1018.258423,1142.400024,-1.0,-1.0,-1.0,-1.0,0,0.0,0.0,1,2,-1.55,-11.42,9.84,26.64,9.84,26.64,-1.55,-11.42,-0.1,0.23,10.88,29.66,10.62,27.21,-1.55,-11.42,-0.1,0.23,0.0,0.0,0.0,0.0,1,0.043692,0.040027,0,0.0,0.0,0.0,
1690794342999991,2,1,0,3,211,1.71,1.71,6.61,30.31,-0.08,-0.05,-0.02,-2.3,-0.55,-0.32,-0.02,5.13,-0.08,6.11,34.41,6.16,30.33,7.87,30.35,7.82,34.43,0,0.0,0,6,0x800,100,2246.86,1083.98,2217.41,149.79,105.76,1,2,1,94.610085,0,0,0,2171.962891,1033.284668,1127.211304,2217.411865,1031.103271,1136.863525,2321.757568,1030.961914,1136.429932,-1.0,-1.0,-1.0,-1.0,0,0.0,0.0,1,0,-0.32,-2.24,6.31,28.71,6.31,28.71,-0.32,-2.24,-0.02,-0.55,6.59,30.06,6.62,30.34,-0.32,-2.24,-0.02,-0.55,0.015431,0.015431,0.0,0.0,0,-0.01235,-0.022596,0,0.0,0.0,0.0,
1690794342999991,2,1,1,1,211,1.52,1.44,3.65,32.51,-0.05,0.04,-0.02,-2.78,-1.03,-0.26,-0.02,4.62,-0.56,3.23,36.04,3.1,32.54,4.62,32.48,4.75,35.98,0,0.0,0,5,0x800,100,2055.58,1088.26,2016.37,98.27,83.86,1,2,1,92.59697,1,3,3,2006.441162,1046.712524,1122.812866,2016.373657,1046.332031,1130.187256,2104.709229,1046.169189,1130.010498,-1.0,-1.0,-1.0,-1.0,0,0.0,0.0,1,0,-0.26,-2.74,3.55,31.4,3.55,31.4,-0.26,-2.74,-0.02,-1.03,3.69,32.69,3.65,32.52,-0.26,-2.74,-0.02,-1.03,0.004642,0.004642,0.0,0.0,0,0.036403,0.039973,0,0.0,0.0,0.0,
1690794342999991,2,1,0,8,61,1.55,1.47,14.25,34.29,-0.16,0.39,-0.0,-0.65,-0.06,0.07,-0.0,6.84,0.41,13.39,37.79,13.24,34.33,14.78,34.26,14.94,37.72,0,0.0,0,30,0x800,100,2574.2,1090.04,2559.24,139.2,80.34,1,2,1,90.48188,1,1,1,2504.599121,1049.919922,1123.327026,2559.23584,1049.872681,1130.217041,2643.796387,1049.716431,1130.077515,-1.0,-1.0,-1.0,-1.0,0,0.0,0.0,1,0,0.07,-0.52,12.66,30.19,12.66,30.19,0.07,-0.52,-0.0,-0.06,14.08,33.8,14.26,34.31,0.07,-0.52,-0.0,-0.06,0.003826,0.003826,0.0,0.0,0,0.045148,0.365422,0,0.0,0.0,0.0,
1690794342999991,2,1,1,7,191,1.66,1.45,5.65,35.61,0.14,0.02,-0.02,-2.91,-0.64,-0.3,-0.02,4.51,-0.18,5.24,39.6,4.9,35.65,6.56,35.51,6.9,39.46,0,0.0,0,13,0x800,100,2136.95,1074.6,2096.77,97.26,77.11,1,2,1,91.942581,1,2,2,2088.316162,1037.394531,1107.156128,2096.772949,1036.039673,1113.153198,2185.580078,1035.846802,1113.116577,-1.0,-1.0,-1.0,-1.0,0,0.0,0.0,1,0,-0.3,-2.86,6.29,39.6,6.29,39.6,-0.3,-2.86,-0.02,-0.64,5.59,34.98,5.65,35.61,-0.3,-2.86,-0.02,-0.64,0.0,0.0,0.0,0.0,0,0.10469,0.008698,0,0.0,0.0,0.0,
1690794342999991,2,1,0,5,11,1.67,1.45,3.28,38.87,0.34,0.33,-0.0,0.69,-0.0,-0.02,-0.0,8.09,0.47,2.47,38.93,4.09,38.83,4.35,43.1,2.73,43.2,0,0.0,0,42,0x2820,100,1996.95,1063.31,1957.33,79.24,71.07,1,2,2,89.643288,1,1,1,1957.331543,1027.781128,1098.846191,1957.331543,1027.781128,1098.846191,2036.574341,1027.615601,1098.739868,-1.0,-1.0,-1.0,-1.0,0,0.0,0.0,1,0,-0.02,0.72,4.15,49.27,4.15,49.27,-0.02,0.72,-0.0,-0.0,3.14,36.81,3.28,38.87,-0.02,0.72,-0.0,-0.0,0.0,0.0,0.0,0.0,0,0.047549,0.061708,0,0.0,0.0,0.0,
1690794342999991,2,1,0,2,22,1.43,1.45,10.59,39.88,-0.08,0.36,-0.0,0.57,0.06,0.0,-0.0,8.03,0.53,9.93,40.18,11.32,39.85,12.3,44.0,10.91,44.33,0,0.0,0,39,0xC00,100,2339.96,1081.99,2305.36,69.2,68.54,1,2,2,88.263031,1,3,3,2305.358887,1047.716797,1116.258789,2305.358887,1047.716797,1116.258789,2374.563477,1047.575684,1116.562378,-1.0,-1.0,-1.0,-1.0,0,0.0,0.0,1,0,0.0,0.67,9.52,35.7,9.52,35.7,0.0,0.67,-0.0,0.06,9.89,37.16,10.4,39.88,0.0,0.67,-0.0,0.06,0.0,0.0,0.0,0.0,0,0.232982,0.232982,0,0.0,0.0,0.0,
1690794342999991,2,1,5,9,4,0.88,1.45,21.15,116.85,0.4,1.07,0.0,0.12,0.0,0.01,0.0,7.67,0.47,20.63,118.85,21.21,116.84,22.05,117.09,21.47,119.1,0,0.0,0,44,0x820,100,2190.29,1053.34,2191.35,28.6,24.28,1,2,1,95.942131,1,3,3,2175.994141,1041.367798,1065.254883,2191.347412,1041.196655,1065.480591,2204.591553,1041.192261,1065.420166,-1.0,-1.0,-1.0,-1.0,0,0.0,0.0,1,2,0.01,0.31,31.44,174.65,31.44,174.65,0.01,0.31,0.0,0.0,21.22,117.29,21.09,116.85,0.01,0.31,0.0,0.0,0.0,0.0,0.0,0.0,0,-0.244627,-0.244627,1,0.0,0.0,0.0,
1690794343500239,2,1,0,14,110,1.48,1.38,2.82,1.71,-0.0,0.01,0.0,-0.02,0.0,0.0,0.0,7.54,0.22,2.08,1.74,3.56,1.68,3.56,1.69,2.08,1.75,3,0.82,0,28,0x804,100,3402.49,1398.21,2993.16,824.64,766.37,1,1,1,94.089844,0,0,0,2990.172363,1015.101379,1779.344482,2993.157715,1015.021912,1781.388184,3814.813477,1013.62677,1779.946533,-1.0,-1.0,-1.0,-1.0,0,0.0,0.0,3,-1,0.0,0.0,2.82,1.71,2.82,1.71,0.0,0.0,0.0,0.0,2.97,1.9,2.97,1.9,0.0,0.0,0.0,0.0,0.997527,0.997527,0.0,0.0,0,-3.141593,0.0,0,0.0,0.0,0.0,
1690794343500239,2,1,0,0,226,1.76,1.55,0.25,12.29,0.07,-0.01,-0.0,-0.83,-0.54,-0.08,-0.0,6.71,-0.32,-0.63,16.6,-0.63,12.32,1.13,12.32,1.13,16.6,1,0.92,1,1,0x0,100,1871.71,1112.22,1746.93,249.56,220.06,1,2,2,95.69973,0,0,0,1746.925659,1002.188965,1222.24707,1746.925659,1002.188965,1222.24707,1996.48999,1001.969604,1220.928955,-1.0,-1.0,-1.0,-1.0,0,0.0,0.0,1,2,-0.08,-0.83,0.25,12.28,0.25,12.25,-0.08,-0.82,-0.0,-0.54,0.25,12.55,0.26,12.61,-0.08,-0.84,-0.0,-0.55,0.897238,0.897238,-0.002164,-0.906853,1,0.000796,0.0,0,0.0,0.0,0.0,
1690794343500239,2,1,1,12,171,1.79,1.74,10.74,15.47,-0.16,0.07,0.05,-4.31,-0.27,-0.02,0.05,3.29,-0.05,10.97,19.73,11.02,15.46,12.81,15.48,12.76,19.75,0,0.0,0,17,0x800,100,3057.67,1112.35,3083.55,442.01,196.54,1,2,1,95.204193,1,3,3,2836.665283,1019.936584,1178.271606,3083.554199,1014.080322,1210.617065,3278.673828,1013.888306,1209.413086,-1.0,-1.0,-1.0,-1.0,0,0.0,0.0,1,1,-0.02,-4.25,9.69,13.77,9.69,13.77,-0.02,-4.25,0.05,-0.27,10.84,15.62,10.74,15.48,-0.02,-4.25,0.05,-0.27,0.0,0.0,0.0,0.0,0,-0.011023,-0.004109,0,0.0,0.0,0.0,
1690794343500239,2,1,1,4,226,1.72,1.6,6.77,18.37,-0.19,-0.15,-0.02,-2.65,-0.45,-0.25,-0.02,4.93,-0.23,6.43,22.48,6.52,18.38,8.24,18.42,8.15,22.52,0,0.0,0,2,0x800,100,2500.73,1113.06,2475.91,279.17,156.48,1,2,1,95.519386,0,0,0,2361.142578,1036.411499,1166.696533,2475.905029,1034.822876,1191.305176,2640.30835,1034.583618,1190.240967,-1.0,-1.0,-1.0,-1.0,0,0.0,0.0,1,1,-0.25,-2.61,5.99,16.02,5.98,15.98,-0.29,-2.51,-0.03,-0.41,7.0,19.02,6.98,18.98,-0.25,-2.64,-0.02,-0.46,0.205247,0.205247,0.0,0.0,1,-0.022757,-0.015997,0,0.0,0.0,0.0,
1690794343500239,2,1,1,6,71,1.83,1.86,11.24,25.53,-0.14,-0.23,0.08,-7.88,1.21,-0.37,0.08,-0.28,1.43,9.84,29.83,9.66,25.6,11.49,25.52,11.67,29.76,0,0.0,0,32,0x800,100,2558.11,1081.23,2532.8,213.12,134.37,1,2,1,93.177353,1,3,3,2451.550293,1018.020508,1134.584106,2532.803711,1014.04303,1148.415405,2664.666016,1013.812317,1148.200806,-1.0,-1.0,-1.0,-1.0,0,0.0,0.0,1,0,-0.37,-7.82,9.42,23.28,9.42,23.28,-0.37,-7.82,0.08,1.21,11.24,28.13,11.24,25.5,-0.37,-7.82,0.08,1.21,0.0,0.0,0.0,0.0,1,0.041963,0.040022,0,0.0,0.0,0.0,
1690794343500239,2,1,0,8,11,1.79,1.49,13.76,25.74,-0.23,0.09,-0.0,-1.86,0.28,-0.05,-0.0,5.75,0.5,14.7,29.96,14.85,25.7,16.64,25.76,16.49,30.03,0,0.0,0,46,0x800,100,2881.66,1100.37,2895.17,270.86,106.26,1,2,1,94.524803,0,0,0,2746.228516,1046.868286,1139.111328,2895.169434,1047.245361,1153.500977,3017.085938,1047.012451,1152.76062,-1.0,-1.0,-1.0,-1.0,0,0.0,0.0,1,0,-0.05,-1.78,12.14,21.99,12.14,21.99,-0.05,-1.78,-0.0,0.28,13.68,25.01,13.76,25.75,-0.05,-1.78,-0.0,0.28,0.0,0.0,0.0,0.0,0,-0.035107,-0.03318,0,0.0,0.0,0.0,
1690794343500239,2,1,0,3,226,1.68,1.69,6.71,29.04,-0.1,-0.04,0.0,-2.55,-0.31,-0.21,0.0,5.02,-0.09,6.22,33.08,6.3,29.06,7.98,29.09,7.9,33.11,0,0.0,0,6,0x800,100,2269.55,1080.81,2241.82,157.76,108.68,1,2,1,95.639053,0,0,0,2190.670166,1028.508911,1124.765869,2241.820312,1026.470581,1135.153687,2348.429688,1026.342773,1134.669189,-1.0,-1.0,-1.0,-1.0,0,0.0,0.0,1,0,-0.21,-2.52,6.32,27.14,6.32,27.14,-0.21,-2.52,0.0,-0.31,6.76,29.18,6.72,29.08,-0.21,-2.52,0.0,-0.31,0.018095,0.018095,0.0,0.0,0,-0.020722,-0.019303,0,0.0,0.0,0.0,
1690794343500239,2,1,1,1,226,1.5,1.43,3.68,30.73,-0.06,-0.06,-0.01,-3.38,-0.8,-0.23,-0.01,4.18,-0.58,3.0,34.34,3.1,30.75,4.61,30.8,4.51,34.38,0,0.0,0,5,0x800,100,2059.76,1084.75,2026.36,115.55,87.52,1,2,1,94.116936,1,3,3,2001.988647,1041.321411,1120.188477,2026.360962,1040.989014,1128.511108,2117.536865,1040.841064,1128.089478,-1.0,-1.0,-1.0,-1.0,0,0.0,0.0,1,0,-0.23,-3.36,3.52,29.55,3.52,29.55,-0.23,-3.36,-0.01,-0.8,3.7,31.23,3.68,30.74,-0.23,-3.36,-0.01,-0.8,0.005684,0.005684,0.0,0.0,0,-0.028036,-0.044048,0,0.0,0.0,0.0,
1690794343500239,2,1,1,7,206,1.66,1.45,5.65,33.48,0.08,-0.14,-0.02,-3.71,-0.51,-0.33,-0.02,3.87,-0.29,5.26,37.48,4.9,33.53,6.56,33.38,6.91,37.33,0,0.0,0,13,0x800,100,2154.65,1073.3,2112.38,103.83,81.71,1,2,1,92.944046,1,2,2,2102.739746,1033.596069,1107.096436,2112.378662,1032.441895,1114.150391,2206.566406,1032.25293,1114.153076,-1.0,-1.0,-1.0,-1.0,0,0.0,0.0,1,0,-0.33,-3.67,5.88,34.88,5.88,34.88,-0.33,-3.67,-0.02,-0.51,5.63,33.35,5.65,33.48,-0.33,-3.67,-0.02,-0.51,0.0,0.0,0.0,0.0,0,0.108874,0.034889,0,0.0,0.0,0.0,
1690794343500239,2,1,1,5,26,1.67,1.45,3.02,35.19,0.3,-0.02,-0.01,-3.7,0.22,-0.21,-0.01,3.85,0.44,2.22,35.26,3.83,35.15,4.11,39.41,2.5,39.52,0,0.0,0,42,0x2C20,100,1999.12,1060.31,1955.56,87.12,78.1,1,2,2,86.971458,1,1,1,1955.55957,1021.264587,1099.363281,1955.55957,1021.264587,1099.363281,2042.675415,1021.089233,1099.273682,-1.0,-1.0,-1.0,-1.0,0,0.0,0.0,1,0,-0.21,-3.69,3.83,42.59,3.83,42.59,-0.21,-3.69,-0.01,0.22,3.01,33.14,3.02,35.19,-0.21,-3.69,-0.01,0.22,0.0,0.0,0.0,0.0,0,0.051732,-0.019412,0,0.0,0.0,0.0,
1690794343500239,2,1,0,2,37,1.25,1.45,10.51,37.09,-0.11,-0.43,-0.05,-2.15,0.25,-0.64,-0.05,5.44,0.47,9.94,37.37,11.15,37.07,12.19,41.21,10.98,41.51,0,0.0,0,39,0x1800,100,2371.18,1079.38,2338.96,65.29,73.38,1,2,2,88.582916,1,2,2,2338.536133,1042.75769,1109.112061,2338.955078,1042.690063,1116.071289,2403.827881,1042.573608,1116.431763,-1.0,-1.0,-1.0,-1.0,0,0.0,0.0,1,0,-0.64,-2.1,8.97,31.41,8.97,31.41,-0.64,-2.1,-0.05,0.25,9.3,32.63,9.74,37.12,-0.64,-2.1,-0.05,0.25,0.0,0.0,0.0,0.0,0,0.246329,0.246329,0,0.0,0.0,0.0,
1690794343500239,2,1,1,9,19,1.55,1.45,21.23,111.86,0.29,0.69,0.01,-4.45,0.26,0.06,0.01,3.2,0.48,21.01,115.56,20.53,111.89,22.07,111.69,22.55,115.36,0,0.0,0,44,0x800,100,2207.03,1049.08,2194.91,30.48,25.34,1,2,1,90.926453,1,3,3,2191.79126,1036.640747,1061.184448,2194.914551,1036.409546,1061.744873,2222.266846,1036.353638,1061.719482,-1.0,-1.0,-1.0,-1.0,0,0.0,0.0,2,2,0.06,-4.33,28.7,151.95,28.7,151.95,0.06,-4.33,0.01,0.26,22.12,116.66,21.24,111.86,0.06,-4.33,0.01,0.26,0.0,0.0,0.0,0.0,0,0.129329,0.104816,0,0.0,0.0,0.0,
1690794344000216,2,1,0,14,125,1.18,1.08,2.95,1.68,-0.0,0.01,0.0,-0.01,0.0,0.0,0.0,7.56,-0.06,2.36,1.71,3.53,1.66,3.53,1.67,2.36,1.72,3,0.85,0,28,0x804,100,3483.16,1480.86,3155.13,662.98,608.17,1,1,1,93.102478,0,0,0,3151.671387,1176.404175,1782.869019,3155.128662,1176.77417,1784.940674,3814.646484,1175.66748,1783.80542,-1.0,-1.0,-1.0,-1.0,0,0.0,0.0,3,-1,0.0,0.0,2.94,1.68,2.94,1.68,0.0,0.0,0.0,0.0,3.94,2.87,3.94,2.87,0.0,0.0,0.0,0.0,0.997527,0.997527,0.0,0.0,0,-3.141593,0.0,0,0.0,0.0,0.0,
1690794344000216,2,1,0,0,241,1.76,1.51,0.28,12.41,0.07,0.01,0.0,-0.49,0.05,-0.05,0.0,7.08,-0.01,-0.59,16.72,-0.59,12.44,1.17,12.44,1.17,16.72,1,0.92,1,1,0x0,100,1876.79,1112.57,1752.87,247.84,213.28,1,2,2,95.150406,1,3,3,1752.874512,1005.926392,1219.209595,1752.874512,1005.926392,1219.209595,2000.710205,1005.689941,1217.915527,-1.0,-1.0,-1.0,-1.0,0,0.0,0.0,1,1,-0.05,-0.49,0.29,12.45,0.27,12.39,-0.05,-0.48,0.0,0.05,0.29,12.65,0.28,12.53,-0.05,-0.49,0.0,0.05,0.857243,0.857243,-0.001052,-0.445665,1,0.0003,0.0,0,0.0,0.0,0.0,
1690794344000216,2,1,1,12,186,1.79,1.81,10.71,13.07,-0.23,0.03,0.05,-4.52,-0.03,-0.03,0.05,3.1,-0.09,11.08,17.32,11.11,13.06,12.9,13.07,12.87,17.34,0,0.0,0,17,0x800,100,3244.29,1124.99,3292.77,547.0,237.33,1,2,1,95.634964,0,0,0,2970.79248,1014.233459,1199.73645,3292.773193,1006.323303,1243.658203,3517.790039,1006.134094,1242.127563,-1.0,-1.0,-1.0,-1.0,0,0.0,0.0,1,2,-0.03,-4.47,9.28,11.04,9.28,11.04,-0.03,-4.47,0.05,-0.03,10.88,13.27,10.71,13.07,-0.03,-4.47,0.05,-0.03,0.0,0.0,0.0,0.0,1,-0.008391,-0.024911,0,0.0,0.0,0.0,
1690794344000216,2,1,1,4,241,1.72,1.56,6.62,16.5,-0.16,-0.15,-0.01,-2.86,-0.18,-0.23,-0.01,4.73,-0.25,6.31,20.62,6.44,16.51,8.16,16.56,8.04,20.68,0,0.0,0,2,0x800,100,2552.6,1117.57,2531.19,317.28,168.7,1,2,1,95.679596,0,0,0,2393.961426,1034.939087,1173.054077,2531.189941,1033.217285,1201.919922,2711.244141,1032.966797,1200.566406,-1.0,-1.0,-1.0,-1.0,0,0.0,0.0,1,1,-0.23,-2.83,5.96,14.64,5.94,14.61,-0.28,-2.71,-0.03,-0.13,6.9,17.22,6.97,17.47,-0.21,-2.89,-0.01,-0.21,0.336576,0.336576,0.0,0.0,1,-0.030762,-0.030446,0,0.0,0.0,0.0,
1690794344000216,2,1,1,8,26,1.79,1.46,13.07,22.91,-0.17,-0.22,-0.02,-3.7,0.55,-0.33,-0.02,3.93,0.49,13.49,27.17,13.43,22.9,15.22,22.87,15.28,27.14,0,0.0,0,46,0xC00,100,2896.76,1101.37,2901.86,290.05,115.96,1,2,1,94.94355,1,3,3,2751.737793,1043.269165,1142.423706,2901.856934,1043.38501,1159.348633,3041.783203,1043.143921,1158.901001,-1.0,-1.0,-1.0,-1.0,0,0.0,0.0,1,0,-0.33,-3.64,11.79,20.45,11.79,20.45,-0.33,-3.64,-0.02,0.55,13.0,22.73,13.11,22.98,-0.33,-3.64,-0.02,0.55,0.026753,0.026753,0.0,0.0,0,0.015019,0.031915,0,0.0,0.0,0.0,
1690794344000216,2,1,1,6,86,1.81,2.01,11.63,24.71,-0.27,0.2,0.15,-5.19,1.96,0.08,0.15,2.43,1.9,10.55,28.89,10.38,24.76,12.19,24.69,12.36,28.81,0,0.0,0,32,0x800,100,2628.4,1085.15,2607.11,225.63,149.06,1,2,1,93.133774,0,0,0,2515.584473,1014.849121,1144.102295,2607.110107,1010.623291,1159.682983,2741.209473,1010.394165,1159.465332,-1.0,-1.0,-1.0,-1.0,0,0.0,0.0,1,0,0.08,-5.13,9.14,20.49,9.14,20.49,0.08,-5.13,0.15,1.96,11.69,26.72,11.63,24.69,0.08,-5.13,0.15,1.96,0.0,0.0,0.0,0.0,1,0.041285,0.040023,0,0.0,0.0,0.0,
1690794344000216,2,1,1,3,241,1.67,1.69,6.68,27.07,-0.1,-0.07,0.01,-3.17,-0.15,-0.2,0.01,4.43,-0.21,6.21,31.08,6.33,27.09,8.0,27.14,7.88,31.13,0,0.0,0,6,0x800,100,2297.54,1081.75,2270.93,172.26,116.37,1,2,1,95.560997,0,0,0,2211.406006,1025.871094,1128.221313,2270.925537,1023.566101,1139.934082,2383.664307,1023.448242,1139.353027,-1.0,-1.0,-1.0,-1.0,0,0.0,0.0,1,0,-0.2,-3.14,6.28,25.22,6.28,25.22,-0.2,-3.14,0.01,-0.15,6.72,27.12,6.7,27.13,-0.2,-3.14,0.01,-0.15,0.027414,0.027414,0.0,0.0,0,-0.02949,-0.029453,0,0.0,0.0,0.0,
1690794344000216,2,1,1,1,241,1.45,1.46,3.63,29.24,-0.07,-0.13,-0.02,-3.5,-0.48,-0.27,-0.02,4.08,-0.55,2.99,32.72,3.18,29.26,4.63,29.33,4.44,32.8,0,0.0,0,5,0x800,100,2070.44,1085.2,2040.03,123.01,93.81,1,2,1,93.189766,1,3,3,2008.938965,1038.75,1123.182861,2040.026367,1038.299438,1132.104736,2131.94873,1038.161255,1131.559692,-1.0,-1.0,-1.0,-1.0,0,0.0,0.0,1,0,-0.27,-3.48,3.47,27.71,3.47,27.71,-0.27,-3.48,-0.02,-0.48,3.62,29.01,3.64,29.25,-0.27,-3.48,-0.02,-0.48,0.008024,0.008024,0.0,0.0,0,-0.053382,-0.048039,0,0.0,0.0,0.0,
1690794344000216,2,1,1,5,41,1.67,1.45,2.9,30.23,0.3,-0.15,-0.01,-6.01,0.45,-0.29,-0.01,1.57,0.39,2.1,30.3,3.71,30.19,4.0,34.46,2.39,34.57,0,0.0,0,42,0x20,100,2016.93,1061.2,1966.65,100.57,90.11,1,2,2,89.01033,1,2,2,1966.646851,1016.139648,1106.253784,1966.646851,1016.139648,1106.253784,2067.220947,1015.932312,1106.174072,-1.0,-1.0,-1.0,-1.0,0,0.0,0.0,1,0,-0.29,-5.99,3.68,38.56,3.68,38.56,-0.29,-5.99,-0.01,0.45,2.9,30.03,2.9,30.23,-0.29,-5.99,-0.01,0.45,0.0,0.0,0.0,0.0,0,0.054675,0.024876,0,0.0,0.0,0.0,
1690794344000216,2,1,1,7,221,1.66,1.45,5.47,30.83,0.15,-0.35,-0.06,-4.65,-0.42,-0.5,-0.06,2.93,-0.48,5.08,34.82,4.72,30.87,6.37,30.72,6.74,34.67,0,0.0,0,13,0x800,100,2168.84,1069.51,2123.35,112.76,88.3,1,2,1,93.54055,1,1,1,2112.467285,1027.183594,1105.972778,2123.347412,1025.359985,1113.656494,2225.222412,1025.142578,1113.676147,-1.0,-1.0,-1.0,-1.0,0,0.0,0.0,1,0,-0.5,-4.63,6.1,34.11,6.1,34.11,-0.5,-4.63,-0.06,-0.42,5.38,29.82,5.46,30.81,-0.5,-4.63,-0.06,-0.42,0.00695,0.00695,0.0,0.0,0,0.111816,-0.009782,0,0.0,0.0,0.0,
1690794344000216,2,1,1,2,52,1.32,1.45,10.24,33.78,-0.06,-0.31,-0.04,-3.69,0.44,-0.47,-0.04,3.92,0.38,9.64,34.09,10.91,33.75,12.02,37.88,10.75,38.22,0,0.0,0,39,0x800,100,2405.72,1078.3,2368.38,75.28,80.03,1,2,2,88.972061,1,2,2,2368.083008,1038.640015,1110.405518,2368.378906,1038.283936,1118.312012,2443.360596,1038.129395,1118.799194,-1.0,-1.0,-1.0,-1.0,0,0.0,0.0,1,0,-0.47,-3.64,9.53,31.34,9.53,31.34,-0.47,-3.64,-0.04,0.44,10.01,33.01,9.86,33.79,-0.47,-3.64,-0.04,0.44,0.0,0.0,0.0,0.0,0,0.261355,0.261355,0,0.0,0.0,0.0,
1690794344499781,2,1,0,14,140,0.74,0.9,3.2,1.72,-0.01,0.01,0.0,-0.02,0.0,0.0,0.0,7.36,-0.59,2.83,1.73,3.57,1.7,3.57,1.71,2.83,1.74,3,0.89,0,28,0x804,100,3601.91,1521.69,3400.65,410.7,501.4,1,1,1,93.913658,0,0,0,3396.560791,1270.358887,1770.373047,3400.650879,1270.991211,1772.393066,3807.256592,1270.332642,1771.721191,-1.0,-1.0,-1.0,-1.0,0,0.0,0.0,3,-1,0.0,0.0,3.19,1.71,3.19,1.71,0.0,0.0,0.0,0.0,5.14,3.86,5.14,3.86,0.0,0.0,0.0,0.0,0.997527,0.997527,0.0,0.0,0,-3.141593,0.0,0,0.0,0.0,0.0,
1690794344499781,2,1,1,12,201,1.79,1.79,10.61,10.45,-0.23,-0.04,0.03,-4.73,0.43,-0.11,0.03,2.69,-0.17,11.12,14.7,11.09,10.44,12.88,10.42,12.91,14.69,0,0.0,0,17,0x800,100,3507.91,1141.9,3590.64,712.95,282.57,1,2,1,95.47319,1,3,3,3151.432129,1010.341064,1221.614014,3590.638184,1000.616943,1283.183838,3864.381348,1000.337769,1281.602173,-1.0,-1.0,-1.0,-1.0,0,0.0,0.0,1,2,-0.11,-4.67,10.61,10.45,10.61,10.45,-0.11,-4.67,0.03,0.43,10.61,10.45,10.62,10.5,-0.11,-4.67,0.03,0.43,0.0,0.0,0.0,0.0,1,0.007342,0.007388,0,0.0,0.0,0.0,
1690794344499781,2,1,0,0,256,1.74,1.55,0.28,11.99,0.08,0.03,0.0,-0.69,0.34,-0.05,0.0,6.67,-0.25,-0.59,16.3,-0.59,12.02,1.16,12.02,1.16,16.3,1,0.92,1,1,0x0,100,1877.19,1108.87,1750.97,252.44,224.11,1,2,2,95.581665,0,0,0,1750.970947,996.819885,1220.926025,1750.970947,996.819885,1220.926025,2003.410278,996.624878,1219.599365,-1.0,-1.0,-1.0,-1.0,0,0.0,0.0,1,1,-0.05,-0.68,0.28,11.99,0.28,11.96,-0.05,-0.68,0.0,0.34,0.29,12.38,0.29,12.32,-0.05,-0.7,0.0,0.34,0.916429,0.916429,-0.001211,-0.505431,1,3.1e-05,0.0,0,0.0,0.0,0.0,
1690794344499781,2,1,1,4,256,1.69,1.52,6.62,14.68,-0.09,0.06,0.02,-2.68,0.35,-0.03,0.02,4.71,-0.24,6.34,18.71,6.44,14.69,8.13,14.73,8.03,18.75,0,0.0,0,2,0x800,100,2625.19,1116.52,2607.02,354.19,181.99,1,2,1,94.391899,0,0,0,2448.097656,1028.209595,1174.938232,2607.023926,1025.528442,1207.516113,2802.287842,1025.29248,1206.102539,-1.0,-1.0,-1.0,-1.0,0,0.0,0.0,1,1,-0.03,-2.64,6.22,13.74,6.24,13.82,-0.05,-2.15,-0.01,0.42,7.16,16.1,7.02,15.59,-0.01,-3.16,0.05,0.29,0.51444,0.51444,0.0,0.0,1,-0.024553,-0.045918,0,0.0,0.0,0.0,
1690794344499781,2,1,0,8,41,1.71,1.5,13.43,23.32,-0.19,0.33,0.03,-2.34,1.13,0.18,0.03,5.1,0.54,13.57,27.16,13.42,23.32,15.13,23.25,15.28,27.09,0,0.0,0,46,0x800,100,2887.33,1097.22,2883.7,260.05,117.34,1,2,1,94.427971,1,3,3,2757.30127,1038.634277,1140.644043,2883.70459,1038.550293,1155.88855,3017.351562,1038.33313,1155.670288,-1.0,-1.0,-1.0,-1.0,0,0.0,0.0,1,0,0.18,-2.25,13.94,23.39,13.94,23.39,0.18,-2.25,0.03,1.13,13.94,23.39,13.66,22.26,0.18,-2.25,0.03,1.13,0.02844,0.02844,0.0,0.0,0,0.04107,0.040022,0,0.0,0.0,0.0,
1690794344499781,2,1,1,6,101,1.78,2.12,11.78,24.3,-0.35,0.35,0.16,-2.83,2.78,0.2,0.16,4.6,2.19,11.63,28.4,11.47,24.31,13.25,24.24,13.41,28.33,0,0.0,0,32,0x800,100,2715.26,1084.28,2700.94,238.97,160.09,1,2,1,93.463417,0,0,0,2595.777344,1008.895996,1147.588745,2700.937744,1004.233276,1164.322754,2834.747559,1004.017883,1164.0979,-1.0,-1.0,-1.0,-1.0,0,0.0,0.0,1,0,0.2,-2.76,9.4,19.05,9.4,19.05,0.2,-2.76,0.16,2.78,11.95,24.74,11.78,24.3,0.2,-2.76,0.16,2.78,0.0,0.0,0.0,0.0,0,0.039244,0.040021,0,0.0,0.0,0.0,
1690794344499781,2,1,1,3,256,1.68,1.68,6.65,24.86,-0.07,-0.02,0.01,-3.7,0.26,-0.18,0.01,3.7,-0.33,6.15,28.88,6.32,24.87,8.0,24.95,7.82,28.95,0,0.0,0,6,0x800,100,2330.89,1079.95,2306.1,193.67,125.19,1,2,1,95.430801,0,0,0,2234.053711,1020.205627,1129.207153,2306.09668,1017.350708,1142.543457,2427.727295,1017.262451,1141.807983,-1.0,-1.0,-1.0,-1.0,0,0.0,0.0,1,0,-0.18,-3.66,6.35,23.65,6.35,23.65,-0.18,-3.66,0.01,0.26,6.7,25.06,6.66,24.92,-0.18,-3.66,0.01,0.26,0.043932,0.043932,0.0,0.0,0,-0.043284,-0.0556,0,0.0,0.0,0.0,
1690794344499781,2,1,1,1,256,1.47,1.45,3.53,26.58,-0.0,-0.14,-0.02,-4.41,-0.12,-0.31,-0.02,2.96,-0.72,2.89,30.11,3.04,26.6,4.51,26.66,4.36,30.17,0,0.0,0,5,0x800,100,2084.24,1081.29,2049.74,134.57,101.61,1,2,1,94.292862,1,3,3,2016.958984,1031.463257,1121.951782,2049.743164,1030.481812,1132.089966,2151.530273,1030.352417,1131.528076,-1.0,-1.0,-1.0,-1.0,0,0.0,0.0,1,0,-0.31,-4.39,3.54,26.66,3.54,26.66,-0.31,-4.39,-0.02,-0.12,3.54,26.62,3.53,26.58,-0.31,-4.39,-0.02,-0.12,0.012307,0.012307,0.0,0.0,0,-0.042814,-0.034379,0,0.0,0.0,0.0,
1690794344499781,2,1,1,7,236,1.66,1.45,5.38,28.22,0.16,-0.3,-0.05,-5.06,0.04,-0.48,-0.05,2.33,-0.55,5.01,32.21,4.63,28.26,6.29,28.11,6.66,32.05,0,0.0,0,13,0x800,100,2191.2,1067.83,2142.5,124.17,95.91,1,2,1,90.974686,1,2,2,2129.117676,1022.092407,1106.886963,2142.504639,1019.877991,1115.786743,2253.284668,1019.640198,1115.841309,-1.0,-1.0,-1.0,-1.0,0,0.0,0.0,1,0,-0.48,-5.03,6.15,32.16,6.15,32.16,-0.48,-5.03,-0.05,0.04,5.36,27.83,5.38,28.18,-0.48,-5.03,-0.05,0.04,0.009693,0.009693,0.0,0.0,0,0.114164,0.026337,0,0.0,0.0,0.0,
1690794344499781,2,1,1,5,56,1.67,1.45,2.84,28.58,0.29,-0.12,-0.01,-4.74,1.05,-0.3,-0.01,2.63,0.46,2.03,28.66,3.65,28.54,3.95,32.81,2.34,32.92,0,0.0,0,42,0x20,100,2022.38,1059.71,1969.37,106.02,94.97,1,2,2,90.439751,1,1,1,1969.366821,1012.22467,1107.19043,1969.366821,1012.22467,1107.19043,2075.386719,1012.008789,1107.128052,-1.0,-1.0,-1.0,-1.0,0,0.0,0.0,1,0,-0.3,-4.73,3.53,36.46,3.53,36.46,-0.3,-4.73,-0.01,1.05,2.82,28.78,2.84,28.58,-0.3,-4.73,-0.01,1.05,0.0,0.0,0.0,0.0,0,0.057022,-0.007268,0,0.0,0.0,0.0,
1690794344499781,2,1,1,2,67,1.42,1.45,10.34,31.43,-0.04,-0.05,-0.01,-3.89,0.91,-0.25,-0.01,3.53,0.32,9.71,31.8,11.07,31.41,12.25,35.51,10.89,35.91,0,0.0,0,39,0x800,100,2451.25,1076.29,2407.87,87.33,85.4,1,2,2,89.652344,1,1,1,2407.584229,1034.116333,1110.208984,2407.872803,1033.593262,1118.99585,2494.914795,1033.403687,1119.66394,-1.0,-1.0,-1.0,-1.0,0,0.0,0.0,1,0,-0.25,-3.83,9.67,29.29,9.67,29.29,-0.25,-3.83,-0.01,0.91,9.97,30.26,10.14,31.44,-0.25,-3.83,-0.01,0.91,0.0,0.0,0.0,0.0,0,0.280936,0.280936,0,0.0,0.0,0.0,
1690794345000219,2,1,1,12,216,1.79,1.79,10.55,7.93,-0.23,-0.11,0.02,-4.75,-0.03,-0.14,0.02,2.52,-0.22,11.06,12.18,11.02,7.91,12.81,7.9,12.85,12.17,0,0.0,0,17,0x800,100,3864.46,1171.48,4016.13,982.05,353.16,1,1,1,95.47319,0,0,0,3373.435059,1009.202515,1257.614502,4016.130127,994.902283,1348.067017,4355.48291,994.581787,1345.713867,-1.0,-1.0,-1.0,-1.0,0,0.0,0.0,1,2,-0.14,-4.71,10.55,7.93,10.55,7.93,-0.14,-4.71,0.02,-0.03,10.55,7.93,10.55,7.96,-0.14,-4.71,0.02,-0.03,0.0,0.0,0.0,0.0,1,0.007255,0.007388,0,0.0,0.0,0.0,
1690794345000219,2,1,1,4,271,1.65,1.48,5.99,11.48,-0.04,-0.28,-0.03,-3.37,-0.16,-0.32,-0.03,3.88,-0.35,5.81,15.43,5.89,11.48,7.55,11.52,7.46,15.47,0,0.0,0,2,0x800,100,2724.62,1133.67,2709.85,444.27,219.74,1,2,1,94.073524,1,3,3,2502.490234,1028.227295,1198.256104,2709.85083,1023.800781,1243.538696,2946.759766,1023.53186,1241.629395,-1.0,-1.0,-1.0,-1.0,0,0.0,0.0,1,2,-0.32,-3.35,5.88,11.24,5.92,11.32,-0.31,-3.25,-0.03,-0.13,6.49,12.59,6.61,12.82,-0.4,-4.2,-0.04,-0.44,0.89509,0.89509,0.0,0.0,1,-0.021264,-0.022696,0,0.0,0.0,0.0,
1690794345000219,2,1,0,0,271,1.84,1.55,0.28,12.09,0.08,-0.01,0.0,-0.51,-0.03,-0.06,0.0,6.72,-0.22,-0.64,16.4,-0.64,12.13,1.2,12.13,1.2,16.4,1,0.92,1,1,0x0,100,1876.36,1111.39,1744.43,263.86,223.09,1,2,2,95.651253,0,0,0,1744.432251,999.8479,1222.932983,1744.432251,999.8479,1222.932983,2008.290283,999.628235,1221.535889,-1.0,-1.0,-1.0,-1.0,0,0.0,0.0,1,1,-0.06,-0.51,0.28,12.16,0.28,12.11,-0.06,-0.51,0.0,-0.03,0.27,11.77,0.27,11.87,-0.07,-0.52,-0.0,-0.03,0.911687,0.911687,-0.001468,-0.608408,1,-0.000105,0.0,0,0.0,0.0,0.0,
1690794345000219,2,1,1,3,271,1.58,1.71,6.5,22.38,-0.06,-0.21,-0.01,-4.19,-0.28,-0.29,-0.01,3.06,-0.47,6.05,26.16,6.23,22.39,7.81,22.46,7.63,26.23,0,0.0,0,6,0x800,100,2369.14,1086.24,2346.47,206.58,139.78,1,2,1,95.919258,1,3,3,2265.845459,1019.976318,1141.078125,2346.472412,1016.354736,1156.130615,2472.42627,1016.284912,1155.283936,-1.0,-1.0,-1.0,-1.0,0,0.0,0.0,1,0,-0.29,-4.17,6.26,21.48,6.26,21.48,-0.29,-4.17,-0.01,-0.28,6.47,22.24,6.53,22.47,-0.29,-4.17,-0.01,-0.28,0.093318,0.093318,0.0,0.0,0,-0.046254,-0.07169,0,0.0,0.0,0.0,
1690794345000219,2,1,0,6,116,1.81,2.0,13.35,23.83,-0.25,1.8,0.44,-0.93,2.49,1.71,0.44,6.35,2.3,13.18,28.12,13.01,23.85,14.87,23.77,15.05,28.04,0,0.0,0,32,0x1800,100,2839.14,1085.23,2831.99,271.51,153.35,1,2,1,89.442116,0,0,0,2703.389404,1013.416687,1145.203369,2831.993164,1008.553162,1161.89978,2974.898438,1008.3078,1161.662231,-1.0,-1.0,-1.0,-1.0,0,0.0,0.0,1,0,1.71,-0.88,14.1,26.28,14.1,26.28,1.71,-0.88,0.44,2.49,14.1,26.28,13.35,23.83,1.71,-0.88,0.44,2.49,0.0,0.0,0.0,0.0,1,0.041292,0.179142,0,0.0,0.0,0.0,
1690794345000219,2,1,1,1,271,1.48,1.44,3.45,24.52,0.03,-0.23,-0.02,-4.39,-0.5,-0.32,-0.02,2.85,-0.69,2.8,28.07,2.95,24.54,4.43,24.61,4.28,28.13,0,0.0,0,5,0x800,100,2096.53,1086.31,2059.47,146.21,109.12,1,2,1,94.654732,0,0,0,2023.427979,1033.126465,1129.428955,2059.467285,1031.748657,1140.864746,2169.639404,1031.611572,1140.2323,-1.0,-1.0,-1.0,-1.0,0,0.0,0.0,1,0,-0.32,-4.38,3.54,25.28,3.54,25.28,-0.32,-4.38,-0.02,-0.5,3.46,24.67,3.45,24.51,-0.32,-4.38,-0.02,-0.5,0.018518,0.018518,0.0,0.0,0,-0.041603,-0.047365,0,0.0,0.0,0.0,
1690794345000219,2,1,1,7,251,1.66,1.45,5.44,25.87,0.16,-0.16,0.01,-4.88,-0.31,-0.26,0.01,2.37,-0.5,5.08,29.87,4.69,25.92,6.34,25.76,6.73,29.71,0,0.0,0,13,0x800,100,2223.95,1074.48,2172.57,137.78,103.98,1,2,1,92.303917,1,3,3,2155.060059,1025.042847,1116.087646,2172.572754,1022.492737,1126.471313,2292.837402,1022.217773,1126.554688,-1.0,-1.0,-1.0,-1.0,0,0.0,0.0,1,0,-0.26,-4.86,6.28,30.32,6.28,30.32,-0.26,-4.86,0.01,-0.31,5.49,26.3,5.43,25.82,-0.26,-4.86,0.01,-0.31,0.012924,0.012924,0.0,0.0,0,0.116557,0.006002,0,0.0,0.0,0.0,
1690794345000219,2,1,0,8,56,2.01,1.74,15.08,26.65,-0.38,0.23,0.02,-1.07,0.77,0.13,0.02,6.22,0.58,15.2,30.92,15.03,26.65,17.03,26.57,17.2,30.84,0,0.0,0,46,0x800,100,2880.31,1099.22,2872.62,261.22,120.33,1,2,1,88.161484,1,2,2,2749.696289,1039.585327,1144.456299,2872.62207,1039.050171,1159.38501,3010.918945,1038.814453,1159.147949,-1.0,-1.0,-1.0,-1.0,0,0.0,0.0,1,0,0.13,-1.01,12.46,19.75,12.46,19.75,0.13,-1.01,0.02,0.77,13.68,21.86,13.82,22.27,0.13,-1.01,0.02,0.77,0.033207,0.033207,0.0,0.0,0,0.042385,0.508389,0,0.0,0.0,0.0,
1690794345000219,2,1,1,5,71,1.67,1.45,2.76,27.38,0.33,-0.2,-0.01,-3.47,0.74,-0.31,-0.01,3.77,0.56,1.96,27.46,3.57,27.34,3.88,31.6,2.27,31.72,0,0.0,0,42,0x20,100,2024.83,1061.88,1969.62,110.41,98.87,1,2,2,87.925049,1,3,3,1969.623413,1012.43866,1111.312134,1969.623413,1012.43866,1111.312134,2080.029541,1012.194702,1111.247437,-1.0,-1.0,-1.0,-1.0,0,0.0,0.0,1,0,-0.31,-3.46,3.59,36.05,3.59,36.05,-0.31,-3.46,-0.01,0.74,2.76,27.3,2.76,27.38,-0.31,-3.46,-0.01,0.74,0.0,0.0,0.0,0.0,0,0.059415,-0.0128,0,0.0,0.0,0.0,
1690794345000219,2,1,1,2,82,1.2,1.45,10.11,28.17,-0.02,-0.25,-0.03,-4.57,0.34,-0.36,-0.03,2.7,0.16,9.58,28.51,10.73,28.15,12.01,32.23,10.86,32.59,0,0.0,0,39,0x800,100,2502.12,1082.56,2461.42,82.98,94.57,1,2,2,91.117966,1,1,1,2460.62793,1036.103882,1119.45166,2461.417969,1035.27063,1129.843506,2543.60376,1035.058228,1130.606201,-1.0,-1.0,-1.0,-1.0,0,0.0,0.0,1,0,-0.36,-4.53,9.8,27.27,9.8,27.27,-0.36,-4.53,-0.03,0.34,10.07,28.09,9.98,28.19,-0.36,-4.53,-0.03,0.34,0.008971,0.008971,0.0,0.0,0,0.30638,0.30638,0,0.0,0.0,0.0,
1690794345000219,2,1,5,9,7,0.97,1.45,19.8,51.4,-0.07,0.52,-0.0,-0.15,-0.28,0.32,-0.0,7.16,-0.47,19.46,53.63,20.09,51.39,21.03,51.65,20.4,53.89,0,0.0,0,49,0x800,100,2570.18,1067.07,2580.87,82.23,53.76,1,2,1,87.439934,1,3,3,2529.067871,1040.351074,1091.99231,2580.870117,1040.187988,1093.944824,2611.29541,1040.146606,1093.60437,-1.0,-1.0,-1.0,-1.0,0,0.0,0.0,1,0,0.32,-0.07,19.16,49.71,19.16,49.71,0.32,-0.07,-0.0,-0.28,19.75,51.29,19.77,51.4,0.32,-0.07,-0.0,-0.28,0.0,0.0,0.0,0.0,0,-0.036592,-0.036592,0,0.0,0.0,0.0,
