name,label,sub_class,dynamic_state,score,cyclic_uid,age,world_width,world_height,lat_dist,long_dist,vert_dist,rel_vel_x,rel_acc_x,rel_vel_z,rel_acc_z,abs_vel_x,abs_acc_x,abs_vel_z,abs_acc_z,POS_LEFT_x,POS_LEFT_z,POS_CENTER_x,POS_CENTER_z,POS_RIGHT_x,POS_RIGHT_z,POS_DISTANT_x,POS_DISTANT_z,lane_association,conf,is_cipv,uid,eba_bitmask,vacc_quality,x_center,y_center,d3_separation,width,height,sf_confirmed,class_right_id,class_left_id,x_l,y_lt,y_lb,x_s,y_st,y_sb,x_r,y_rt,y_rb,matching_radar_cluster_top_left_x,matching_radar_cluster_top_left_z,matching_radar_cluster_width,matching_radar_cluster_height,matching_radar_cluster_is_static,matching_radar_cluster_center_x,matching_radar_cluster_center_z,update_type,reaction_profile,tracked_vel_x,tracked_vel_z,rc_raw_meas_x,rc_raw_meas_z,rc_tracked_pos_x,rc_tracked_pos_z,rc_tracked_vel_x,rc_tracked_vel_z,rc_tracked_acc_x,rc_tracked_acc_z,fd_raw_meas_x,fd_raw_meas_z,fd_tracked_pos_x,fd_tracked_pos_z,fd_tracked_vel_x,fd_tracked_vel_z,fd_tracked_acc_x,fd_tracked_acc_z,rc_weight_pos,rc_weight_kinematics,of_ittc_z,of_rel_vel_z,width_est,orientation,sf_orientation,cametra_origin,debug_field_0,debug_field_1,debug_field_2,Unnamed: 89
1692632429500090,2,1,0,96.0,2,16,1.6,1.44,2.79,8.55,-0.01,-0.03,0.0,0.42,0.03,0.04,0.0,19.86,0.6,2.28,12.38,2.38,8.56,3.98,8.61,3.88,12.42,3,0.84,0,5,0x0,100,2373.62,1153.19,2292.07,434.46,276.3,1,2,1,2156.393555,1020.861877,1223.243286,2292.066162,1015.045837,1291.343262,2590.855225,1014.78479,1288.336182,-1.0,-1.0,-1.0,-1.0,0,0.0,0.0,1,2,0.04,0.4,2.8,8.53,2.79,8.54,0.04,0.4,0.0,0.03,3.1,9.63,3.08,9.61,0.02,-0.11,0.0,0.03,0.99489,0.99489,0.0,0.0,1,-0.025471,-0.015656,0,0.0,0.0,0.0,
1692632429500090,2,1,0,94.0,6,16,1.65,1.51,7.58,13.91,0.0,-0.08,0.0,-3.34,0.03,0.03,0.0,16.06,0.59,7.65,17.73,7.5,13.92,9.15,13.85,9.29,17.66,0,0.0,0,6,0x800,100,2794.19,1106.43,2774.39,371.69,188.45,1,2,1,2608.347412,1016.902649,1169.075317,2774.394043,1012.206238,1200.659424,2980.04248,1011.887756,1200.300781,-1.0,-1.0,-1.0,-1.0,0,0.0,0.0,1,2,0.03,-3.39,7.67,14.09,7.7,14.17,0.03,-3.45,0.0,0.03,7.29,13.31,7.39,13.52,0.03,-3.31,0.0,0.02,0.602783,0.602783,0.0,0.0,0,0.03805,0.04002,0,0.0,0.0,0.0,
1692632429500090,2,1,0,91.0,8,16,1.94,1.58,13.95,24.58,0.46,-0.18,0.0,-1.93,0.03,0.01,0.0,17.42,0.59,13.64,28.87,13.47,24.6,15.41,24.52,15.58,28.79,0,0.0,0,7,0x800,100,2845.31,1040.57,2836.49,270.07,117.47,1,2,1,2710.270996,989.334045,1090.717896,2836.494141,981.834412,1099.304321,2980.340332,981.609314,1099.075928,-1.0,-1.0,-1.0,-1.0,0,0.0,0.0,1,1,0.01,-2.04,21.88,39.57,21.88,39.57,0.01,-2.04,0.0,0.03,13.91,24.5,13.95,24.58,0.01,-2.04,0.0,0.03,0.0,0.0,0.0,0.0,1,0.039556,0.242393,0,0.0,0.0,0.0,
1692632429500090,2,2,0,84.0,5,16,2.6,3.19,3.17,35.99,0.36,-0.34,-0.0,-7.07,0.02,-0.07,-0.0,12.36,0.59,1.86,36.06,4.45,35.94,4.94,45.92,2.35,46.04,0,0.0,0,8,0x810,100,2002.53,1003.47,1934.09,136.9,168.02,1,2,2,1934.086304,919.456543,1087.478516,1934.086304,919.456543,1087.478516,2070.981445,919.169312,1087.293945,-1.0,-1.0,-1.0,-1.0,0,0.0,0.0,1,1,-0.07,-7.1,4.28,49.47,4.28,49.47,-0.07,-7.1,-0.0,0.02,3.04,34.59,3.17,35.98,-0.07,-7.1,-0.0,0.02,0.0,0.0,0.0,0.0,1,0.036994,0.049102,0,0.0,0.0,0.0,
1692632429500090,2,1,1,88.0,12,16,1.54,1.45,14.03,37.96,-0.0,-0.71,-0.02,-20.08,0.02,-0.42,-0.02,-0.73,0.59,14.25,41.54,13.37,37.98,14.86,37.62,15.74,41.18,0,0.0,0,12,0x800,100,2532.6,1065.75,2499.99,94.2,71.97,1,2,1,2485.498047,1030.276489,1096.347168,2499.988525,1029.764771,1101.733887,2579.696289,1029.593506,1102.114014,-1.0,-1.0,-1.0,-1.0,0,0.0,0.0,1,2,-0.42,-20.18,13.9,37.61,13.9,37.61,-0.42,-20.18,-0.02,0.02,14.02,37.95,14.18,37.95,-0.42,-20.18,-0.02,0.02,0.0,0.0,0.0,0.0,0,0.221199,0.221199,0,0.0,0.0,0.0,
1692632429500090,2,1,0,89.0,0,16,1.84,1.54,0.41,38.52,0.1,-0.28,0.0,1.24,0.03,0.01,0.0,20.69,0.59,-0.46,42.83,-0.46,38.56,1.38,38.56,1.38,42.83,1,0.0,1,9,0x0,100,1858.89,1059.41,1813.29,91.2,76.27,1,2,2,1813.288696,1021.280273,1097.546875,1813.288696,1021.280273,1097.546875,1904.490601,1021.164917,1097.292236,-1.0,-1.0,-1.0,-1.0,0,0.0,0.0,1,0,0.01,1.24,0.47,39.78,0.47,39.78,0.01,0.55,0.0,0.03,0.45,37.44,0.41,38.52,0.01,1.24,0.0,0.03,0.0,0.0,0.000271,0.326527,1,-0.00163,0.0,0,0.0,0.0,0.0,
1692632429500090,2,1,0,92.0,1,16,1.77,1.69,-2.24,53.49,-0.1,-0.41,0.0,5.39,0.04,-0.01,0.0,24.87,0.6,-3.29,53.58,-1.52,53.46,-1.24,57.68,-3.0,57.79,2,0.0,0,10,0x0,100,1755.69,1058.05,1780.86,77.42,61.21,1,1,2,1716.975708,1027.555908,1088.713989,1780.858765,1027.446899,1088.658813,1794.399292,1028.095459,1084.952759,-1.0,-1.0,-1.0,-1.0,0,0.0,0.0,1,0,-0.01,5.41,-2.02,48.44,-2.02,48.44,-0.01,5.41,0.0,0.04,-2.26,54.45,-2.24,53.49,-0.01,5.41,0.0,0.04,0.0,0.0,0.0,0.0,1,0.067532,0.070477,0,0.0,0.0,0.0,
1692632429500090,2,1,0,99.0,10,16,1.77,1.45,12.59,70.27,0.14,-0.53,-0.0,-8.85,0.03,0.0,-0.0,10.51,0.59,12.25,74.16,11.9,70.3,13.51,70.15,13.87,74.01,0,0.0,0,2,0x800,100,2182.97,1049.07,2164.11,52.33,39.97,1,2,1,2156.800537,1029.460938,1067.400635,2164.10791,1029.085327,1069.052734,2209.13501,1029.005981,1069.019775,-1.0,-1.0,-1.0,-1.0,0,0.0,0.0,1,0,0.0,-8.94,13.86,76.91,13.86,76.91,0.0,-8.94,-0.0,0.03,12.4,68.62,12.59,70.27,0.0,-8.94,-0.0,0.03,0.0,0.0,0.0,0.0,0,0.063579,0.078896,0,0.0,0.0,0.0,
1692632429500090,2,1,0,99.0,4,16,1.09,1.45,2.55,77.2,0.05,-0.59,-0.0,4.31,0.03,-0.01,-0.0,23.75,0.59,2.12,81.49,2.02,77.23,3.11,77.2,3.22,81.47,0,0.0,0,3,0x0,100,1900.91,1050.67,1887.12,27.67,36.6,1,2,2,1887.079834,1032.590576,1067.314087,1887.115967,1032.368408,1068.968018,1914.745117,1032.325684,1068.917847,-1.0,-1.0,-1.0,-1.0,0,0.0,0.0,1,0,-0.01,4.29,2.64,79.5,2.64,79.5,-0.01,4.29,-0.0,0.03,2.57,77.36,2.55,77.2,-0.01,4.29,-0.0,0.03,0.0,0.0,0.0,0.0,0,0.025135,0.025665,0,0.0,0.0,0.0,
1692632429500090,2,1,0,99.0,13,12,1.79,1.48,13.02,80.39,0.23,-0.66,-0.0,0.36,0.03,-0.05,-0.0,19.72,0.59,13.03,84.67,12.92,80.4,14.7,80.35,14.82,84.62,0,0.0,0,13,0x800,100,2163.8,1044.8,2148.51,55.8,35.82,1,2,1,2135.89624,1027.371948,1061.43396,2148.511963,1026.890381,1062.712402,2191.695801,1026.824829,1062.637329,-1.0,-1.0,-1.0,-1.0,0,0.0,0.0,1,0,-0.05,0.26,16.36,99.59,16.36,99.59,-0.05,0.26,-0.0,0.03,12.98,78.65,13.02,80.4,-0.05,0.26,-0.0,0.03,0.0,0.0,0.0,0.0,0,0.027823,0.025888,0,0.0,0.0,0.0,
1692632429500090,2,8,0,81.0,3,16,2.0,2.25,2.46,86.45,1.28,-0.66,0.0,0.67,0.03,-0.01,0.0,20.11,0.59,1.55,92.09,1.46,86.49,3.46,86.46,3.56,92.05,0,0.0,0,11,0x2110,100,1891.8,1012.18,1869.19,45.23,50.94,1,2,2,1869.188232,986.707275,1037.650146,1869.188232,986.707275,1037.650146,1914.418945,986.662231,1037.578247,-1.0,-1.0,-1.0,-1.0,0,0.0,0.0,1,0,-0.01,0.65,572.15,20544.31,572.15,20544.31,-0.01,0.65,0.0,0.03,2.53,89.15,2.47,86.45,-0.01,0.65,0.0,0.03,0.0,0.0,0.0,0.0,1,0.016882,0.016882,0,0.0,0.0,0.0,
1692632429500090,2,1,0,99.0,9,16,1.28,1.6,12.98,106.31,0.2,-1.0,-0.01,3.37,0.02,-0.21,-0.01,22.73,0.58,12.78,106.42,14.05,106.27,14.55,110.51,13.28,110.66,0,0.0,0,4,0x820,100,2083.12,1042.39,2071.37,23.64,29.35,1,2,2,2071.301514,1028.037476,1056.284912,2071.371582,1027.709106,1057.063843,2094.943359,1027.664185,1057.045288,-1.0,-1.0,-1.0,-1.0,0,0.0,0.0,1,2,-0.21,3.27,15.9,127.02,15.9,127.02,-0.21,3.27,-0.01,0.02,12.13,96.44,12.98,106.32,-0.21,3.27,-0.01,0.02,0.0,0.0,0.0,0.0,0,0.116597,0.116597,0,0.0,0.0,0.0,
1692632429500090,2,1,0,99.0,7,16,1.64,1.45,7.0,156.83,0.32,-1.33,-0.01,1.98,0.02,-0.15,-0.01,21.38,0.58,6.18,156.87,7.82,156.8,7.99,161.07,6.34,161.14,0,0.0,0,1,0x800,100,1924.24,1040.14,1913.9,20.68,18.25,1,2,2,1913.902222,1031.019287,1049.269653,1913.902222,1031.019287,1049.269653,1934.586426,1030.986694,1049.236816,-1.0,-1.0,-1.0,-1.0,0,0.0,0.0,1,2,-0.15,1.93,9.24,207.57,9.24,207.57,-0.15,1.93,-0.01,0.02,6.96,155.91,6.95,156.84,-0.15,1.93,-0.01,0.02,0.0,0.0,0.0,0.0,0,0.039289,0.03894,0,0.0,0.0,0.0,
1692632429999836,2,1,0,95.0,2,31,1.56,1.42,2.75,8.58,-0.0,-0.07,0.0,0.22,-0.1,0.02,0.0,19.92,0.59,2.21,12.32,2.35,8.6,3.9,8.65,3.77,12.37,3,0.82,0,5,0x0,100,2361.16,1156.44,2284.52,425.31,270.58,1,2,1,2148.498535,1025.799805,1225.544067,2284.519043,1021.154907,1291.730469,2573.811523,1020.876587,1288.446289,-1.0,-1.0,-1.0,-1.0,0,0.0,0.0,1,2,0.02,0.19,2.75,8.61,2.75,8.57,0.02,0.19,0.0,-0.1,3.18,10.21,3.14,10.1,0.08,0.53,0.0,-0.08,0.992996,0.992996,0.0,0.0,1,-0.035437,-0.040382,0,0.0,0.0,0.0,
1692632429999836,2,1,0,95.0,6,31,1.74,1.48,7.62,12.03,-0.01,-0.05,0.0,-3.74,-0.1,0.07,0.0,15.91,0.59,7.7,16.19,7.6,12.04,9.34,11.99,9.44,16.15,0,0.0,0,6,0x800,100,2917.85,1121.27,2912.86,477.94,209.44,1,2,1,2678.881104,1021.588867,1183.385986,2912.858643,1016.548218,1225.989014,3156.820557,1016.194824,1225.226685,-1.0,-1.0,-1.0,-1.0,0,0.0,0.0,1,2,0.07,-3.82,7.66,12.09,7.61,12.01,0.04,-3.96,0.0,-0.1,7.66,12.09,7.63,12.15,0.25,-3.11,0.02,-0.07,0.828608,0.828608,0.0,0.0,1,0.024254,0.050442,0,0.0,0.0,0.0,
1692632429999836,2,1,0,92.0,12,31,1.55,1.42,13.4,34.74,-0.06,-0.94,-0.03,-10.95,0.02,-0.58,-0.03,8.63,0.71,13.06,38.4,12.93,34.76,14.48,34.7,14.61,38.34,0,0.0,0,12,0x1800,100,2547.92,1074.1,2534.1,139.46,76.47,1,2,1,2478.188965,1036.123413,1105.744263,2534.103516,1035.867188,1112.341553,2617.646729,1035.7323,1112.196899,-1.0,-1.0,-1.0,-1.0,0,0.0,0.0,1,2,-0.58,-11.09,12.94,33.75,12.94,33.75,-0.58,-11.09,-0.03,0.02,13.62,35.61,13.4,34.74,-0.58,-11.09,-0.03,0.02,0.0,0.0,0.0,0.0,0,0.037043,0.040013,0,0.0,0.0,0.0,
1692632429999836,2,2,0,88.0,5,31,2.48,3.59,3.43,36.73,0.1,-0.23,0.01,-2.16,-0.08,0.15,0.01,17.53,0.61,2.04,36.82,4.52,36.69,5.05,46.67,2.57,46.8,0,0.0,0,8,0x810,100,2005.84,1009.14,1941.61,128.46,185.35,1,2,2,1941.613525,916.466431,1101.819336,1941.613525,916.466431,1101.819336,2070.071289,916.159302,1101.663086,-1.0,-1.0,-1.0,-1.0,0,0.0,0.0,1,1,0.15,-2.2,3.5,39.29,3.5,39.29,0.15,-2.2,0.01,-0.08,3.63,40.89,3.43,36.73,0.15,-2.2,0.01,-0.08,0.0,0.0,0.0,0.0,1,0.037406,0.027417,0,0.0,0.0,0.0,
1692632429999836,2,1,0,90.0,0,31,1.83,1.57,0.32,39.52,-0.04,-0.37,0.0,1.28,-0.13,0.04,0.0,21.01,0.56,-0.6,43.83,-0.6,39.56,1.23,39.56,1.23,43.83,1,0.0,1,9,0x0,100,1851.28,1067.05,1807.01,88.55,76.04,1,2,2,1807.007446,1029.035645,1105.071167,1807.007446,1029.035645,1105.071167,1895.553589,1028.909912,1104.810547,-1.0,-1.0,-1.0,-1.0,0,0.0,0.0,1,0,0.04,1.28,0.29,36.49,0.29,36.49,0.04,0.9,0.0,-0.12,0.31,38.63,0.32,39.52,0.04,1.28,0.0,-0.13,0.0,0.0,0.000679,0.85175,1,-0.002195,0.0,0,0.0,0.0,0.0,
1692632429999836,2,1,0,91.0,1,31,1.79,1.63,-2.35,54.02,-0.2,-0.51,0.01,2.84,-0.12,0.06,0.01,22.59,0.57,-3.43,54.07,-1.64,53.99,-1.45,58.27,-3.24,58.35,2,0.0,0,10,0x0,100,1750.47,1064.34,1777.31,74.82,58.64,1,1,2,1713.062378,1035.122559,1093.758179,1777.3125,1035.018188,1093.662231,1787.880249,1035.281006,1089.739746,-1.0,-1.0,-1.0,-1.0,0,0.0,0.0,1,0,0.06,2.86,-2.03,45.71,-2.03,45.71,0.06,2.86,0.01,-0.12,-2.32,52.44,-2.35,54.02,0.06,2.86,0.01,-0.12,0.0,0.0,0.0,0.0,1,0.044624,0.030598,0,0.0,0.0,0.0,
1692632429999836,2,1,0,99.0,10,31,1.77,1.45,12.97,69.53,-0.06,-0.32,0.02,-4.8,-0.07,0.41,0.02,14.79,0.62,12.61,73.42,12.28,69.55,13.89,69.41,14.23,73.27,0,0.0,0,2,0x800,100,2196.55,1056.64,2178.1,54.08,40.39,1,2,1,2169.509766,1036.559082,1074.877197,2178.096924,1036.450684,1076.838745,2223.585693,1036.375122,1076.806152,-1.0,-1.0,-1.0,-1.0,0,0.0,0.0,1,0,0.41,-4.94,12.58,68.81,12.58,68.81,0.41,-4.94,0.02,-0.07,12.97,71.0,12.97,69.53,0.41,-4.94,0.02,-0.07,0.0,0.0,0.0,0.0,0,0.058861,0.035497,0,0.0,0.0,0.0,
1692632429999836,2,1,0,99.0,13,27,1.79,1.48,12.48,77.35,0.06,-0.91,-0.01,-3.45,-0.1,-0.1,-0.01,16.15,0.59,12.27,81.63,12.16,77.36,13.95,77.31,14.06,81.58,0,0.0,0,13,0xC00,100,2157.52,1051.5,2141.54,57.74,37.1,1,2,1,2128.64917,1033.245728,1068.457764,2141.542725,1032.949707,1070.051514,2186.385986,1032.878784,1069.968994,-1.0,-1.0,-1.0,-1.0,0,0.0,0.0,1,0,-0.1,-3.58,13.36,82.49,13.36,82.49,-0.1,-3.58,-0.01,-0.1,12.32,75.9,12.48,77.35,-0.1,-3.58,-0.01,-0.1,0.0,0.0,0.0,0.0,0,0.026149,0.031702,0,0.0,0.0,0.0,
1692632429999836,2,1,0,99.0,4,31,1.09,1.47,2.32,79.92,-0.21,-0.81,0.0,4.76,-0.1,0.03,0.0,24.47,0.58,1.85,84.22,1.76,79.95,2.86,79.92,2.94,84.19,0,0.0,0,3,0x0,100,1892.58,1058.2,1879.28,26.84,36.04,1,2,2,1879.164185,1040.114746,1074.364136,1879.283936,1040.184204,1076.223145,1906.002808,1040.140625,1076.170044,-1.0,-1.0,-1.0,-1.0,0,0.0,0.0,1,0,0.03,4.74,2.05,68.12,2.05,68.12,0.03,4.74,0.0,-0.1,2.35,78.63,2.32,79.93,0.03,4.74,0.0,-0.1,0.0,0.0,0.0,0.0,0,0.020362,0.023619,0,0.0,0.0,0.0,
1692632429999836,2,8,0,82.0,3,31,2.03,2.89,2.05,84.38,0.38,-1.05,-0.01,-3.27,-0.12,-0.17,-0.01,16.43,0.57,1.1,90.02,1.03,84.42,3.07,84.4,3.13,89.99,0,0.0,0,11,0x2410,100,1883.68,1027.27,1860.12,47.1,66.96,1,2,2,1860.124023,993.785583,1060.745361,1860.124023,993.785583,1060.745361,1907.226318,993.739258,1060.654541,-1.0,-1.0,-1.0,-1.0,0,0.0,0.0,1,0,-0.17,-3.3,1.77,78.04,1.77,78.04,-0.17,-3.3,-0.01,-0.12,1.77,78.04,1.83,83.89,-0.17,-3.3,-0.01,-0.12,0.0,0.0,0.0,0.0,1,0.010019,0.008875,0,0.0,0.0,0.0,
1692632429999836,2,1,0,99.0,7,31,1.67,1.41,5.98,155.38,-0.11,-1.81,-0.01,0.61,-0.04,-0.18,-0.01,20.27,0.65,5.22,159.68,5.06,155.41,6.73,155.35,6.89,159.62,0,0.0,0,1,0x800,100,1911.05,1047.96,1900.46,21.18,17.92,1,1,1,1900.456543,1039.005737,1056.923096,1900.456543,1039.005737,1056.923096,1921.634033,1038.971436,1056.888184,-1.0,-1.0,-1.0,-1.0,0,0.0,0.0,1,2,-0.18,0.54,5.46,143.38,5.46,143.38,-0.18,0.54,-0.01,-0.04,6.08,159.87,5.98,155.38,-0.18,0.54,-0.01,-0.04,0.0,0.0,0.0,0.0,0,0.03739,0.032435,0,0.0,0.0,0.0,
1692632429999836,2,1,0,96.0,8,12,1.96,1.64,11.76,242.15,-0.15,-2.6,-0.0,7.92,-0.1,-0.06,-0.0,27.53,0.59,10.86,242.19,12.82,242.11,13.01,246.38,11.05,246.46,0,0.0,0,14,0x800,100,1933.05,1044.04,1925.03,16.05,13.39,1,2,2,1925.030762,1037.346313,1050.739136,1925.030762,1037.346313,1050.739136,1941.077271,1037.320312,1050.713623,-1.0,-1.0,-1.0,-1.0,0,0.0,0.0,1,2,-0.06,7.8,10.71,218.85,10.71,218.85,-0.06,7.8,-0.0,-0.1,11.75,240.36,11.76,242.15,-0.06,7.8,-0.0,-0.1,0.0,0.0,0.0,0.0,0,0.026429,0.001311,0,0.0,0.0,0.0,
1692632430500243,2,1,0,96.0,2,46,1.64,1.43,2.61,8.98,-0.01,-0.11,-0.01,0.44,0.02,-0.06,-0.01,20.37,0.61,1.97,12.92,2.17,8.99,3.81,9.08,3.61,13.0,3,0.76,0,5,0x0,100,2315.2,1150.24,2235.07,425.73,264.02,1,2,1,2102.333984,1023.435852,1217.532715,2235.06958,1018.22583,1282.248901,2528.062988,1018.015625,1278.457153,-1.0,-1.0,-1.0,-1.0,0,0.0,0.0,1,2,-0.06,0.42,2.6,8.97,2.61,8.97,-0.06,0.43,-0.01,0.02,2.82,9.89,2.86,9.95,-0.12,0.01,-0.01,-0.02,0.989985,0.989985,0.0,0.0,1,-0.05085,-0.048258,0,0.0,0.0,0.0,
1692632430500243,2,1,0,95.0,6,46,1.77,1.46,8.02,10.99,-0.03,0.28,0.02,-3.19,0.04,0.35,0.02,16.71,0.63,8.19,15.21,8.1,10.99,9.87,10.95,9.96,15.18,0,0.0,0,6,0x800,100,3061.29,1131.13,3074.21,558.33,223.66,1,2,1,2782.122559,1023.78949,1192.877075,3074.206543,1019.305908,1242.96167,3340.45166,1018.925537,1241.99353,-1.0,-1.0,-1.0,-1.0,0,0.0,0.0,1,2,0.35,-3.24,7.91,10.83,8.0,10.96,0.33,-3.3,0.02,0.04,8.09,11.11,8.17,11.3,0.58,-2.67,0.04,0.05,0.913822,0.913822,0.0,0.0,1,0.02062,0.0246,0,0.0,0.0,0.0,
1692632430500243,2,1,0,93.0,9,14,1.79,2.11,15.07,26.81,-0.42,-0.11,0.0,-8.22,0.1,0.07,0.0,11.63,0.69,14.56,30.58,16.47,26.75,18.07,27.55,16.17,31.37,0,0.0,0,17,0x800,100,2880.35,1082.88,2965.27,318.62,144.91,1,2,1,2721.044434,1013.718689,1142.137695,2965.266357,1010.424377,1155.336426,3039.662598,1011.036438,1151.798828,-1.0,-1.0,-1.0,-1.0,0,0.0,0.0,1,2,0.07,-8.31,11.54,20.27,11.54,20.27,0.07,-8.31,0.0,0.1,15.3,27.46,15.07,26.81,0.07,-8.31,0.0,0.1,0.0,0.0,0.0,0.0,0,-0.461392,-0.634175,0,0.0,0.0,0.0,
1692632430500243,2,1,0,93.0,12,46,1.51,1.44,13.21,32.93,-0.05,-0.6,-0.02,-7.59,0.37,-0.38,-0.02,12.28,0.97,13.04,36.46,12.91,32.94,14.42,32.89,14.55,36.41,0,0.0,0,12,0x800,100,2581.86,1074.05,2569.19,145.95,81.64,1,2,1,2508.884766,1033.639404,1107.852173,2569.1875,1033.234375,1114.873535,2654.832275,1033.098511,1114.719971,-1.0,-1.0,-1.0,-1.0,0,0.0,0.0,1,1,-0.38,-7.67,12.77,32.08,12.77,32.08,-0.38,-7.67,-0.02,0.37,13.2,33.22,13.21,32.93,-0.38,-7.67,-0.02,0.37,0.004117,0.004117,0.0,0.0,0,0.035097,-0.024522,0,0.0,0.0,0.0,
1692632430500243,2,2,0,71.0,5,46,2.5,3.51,3.41,35.65,0.27,-0.04,0.01,-2.24,-0.01,0.19,0.01,17.68,0.58,2.49,45.68,2.33,35.69,4.83,35.65,4.99,45.64,0,0.0,0,8,0x810,100,2016.94,1000.35,1960.36,152.18,186.39,1,2,1,1940.845825,934.514465,1081.819824,1960.361084,907.149292,1093.543335,2093.030029,907.148621,1093.240723,-1.0,-1.0,-1.0,-1.0,0,0.0,0.0,2,1,0.19,-2.26,3.99,42.06,3.99,42.06,0.19,-2.26,0.01,-0.01,3.41,35.7,3.36,35.66,0.19,-2.26,0.01,-0.01,0.0,0.0,0.0,0.0,1,0.018999,-0.010121,0,0.0,0.0,0.0,
1692632430500243,2,1,0,90.0,0,46,1.69,1.49,0.11,39.48,-0.07,-0.25,0.0,0.96,-0.1,0.01,0.0,20.91,0.49,-0.8,43.79,-0.8,39.52,0.9,39.52,0.9,43.79,1,0.0,1,9,0x0,100,1838.5,1069.73,1797.51,81.97,72.02,1,2,2,1797.512451,1033.716797,1105.735352,1797.512451,1033.716797,1105.735352,1879.480957,1033.592773,1105.493042,-1.0,-1.0,-1.0,-1.0,0,0.0,0.0,1,0,0.01,0.96,0.05,38.63,0.05,38.63,0.01,0.21,0.0,-0.08,0.05,41.89,0.11,39.48,0.01,0.96,0.0,-0.1,0.0,0.0,-8e-06,-0.009809,1,-0.001937,0.0,0,0.0,0.0,0.0,
1692632430500243,2,1,0,93.0,1,46,1.76,1.5,-2.6,53.05,-0.05,-0.34,-0.0,0.95,-0.05,-0.0,-0.0,20.92,0.54,-3.44,53.03,-1.68,53.01,-1.65,57.22,-3.41,57.23,2,0.0,0,10,0x0,100,1745.18,1060.69,1774.6,70.15,54.99,1,1,2,1710.10083,1033.295166,1088.337769,1774.596191,1033.196899,1088.184082,1780.255493,1033.523438,1084.585815,-1.0,-1.0,-1.0,-1.0,0,0.0,0.0,1,0,-0.0,0.97,-2.35,49.96,-2.35,49.96,-0.0,0.97,-0.0,-0.05,-2.6,55.6,-2.6,53.06,-0.0,0.97,-0.0,-0.05,0.0,0.0,0.0,0.0,1,0.008864,0.022791,0,0.0,0.0,0.0,
1692632430500243,2,1,0,99.0,13,42,1.79,1.45,11.84,74.73,0.08,-0.75,-0.02,-4.28,-0.03,-0.27,-0.02,15.59,0.57,11.49,79.02,11.51,74.74,13.3,74.75,13.28,79.03,0,0.0,0,13,0x800,100,2150.12,1050.82,2135.11,62.29,37.67,1,2,1,2118.978271,1032.290771,1067.981323,2135.111816,1031.984131,1069.656006,2181.269775,1031.915894,1069.549316,-1.0,-1.0,-1.0,-1.0,0,0.0,0.0,1,0,-0.27,-4.36,12.65,79.25,12.65,79.25,-0.27,-4.36,-0.02,-0.03,11.73,73.37,11.84,74.73,-0.27,-4.36,-0.02,-0.03,0.0,0.0,0.0,0.0,0,0.009075,-0.018997,0,0.0,0.0,0.0,
1692632430500243,2,1,0,98.0,4,46,1.09,1.51,1.76,78.94,-0.05,-0.64,-0.01,2.01,-0.09,-0.13,-0.01,21.95,0.5,1.31,83.23,1.24,78.96,2.33,78.94,2.4,83.21,0,0.0,0,3,0x0,100,1880.34,1053.04,1866.82,27.05,37.32,1,2,2,1866.819092,1034.380371,1071.704468,1866.819092,1034.380371,1071.704468,1893.870239,1034.338257,1071.649902,-1.0,-1.0,-1.0,-1.0,0,0.0,0.0,1,0,-0.13,2.0,1.75,75.38,1.75,75.38,-0.13,2.0,-0.01,-0.09,1.76,75.86,1.76,78.94,-0.13,2.0,-0.01,-0.09,0.0,0.0,0.0,0.0,0,0.015508,0.016574,0,0.0,0.0,0.0,
1692632430500243,2,8,0,82.0,3,46,2.18,1.87,1.29,83.19,1.34,-0.74,-0.01,-5.22,-0.04,-0.2,-0.01,14.72,0.55,0.21,88.83,0.2,83.23,2.38,83.23,2.39,88.82,0,0.0,0,11,0x2510,100,1866.42,1015.4,1840.83,51.19,44.02,1,2,2,1840.825439,993.389526,1037.409912,1840.825439,993.389526,1037.409912,1892.015747,993.350464,1037.328491,-1.0,-1.0,-1.0,-1.0,0,0.0,0.0,1,0,-0.2,-5.23,1.3,79.93,1.28,79.75,-0.19,-5.37,-0.01,-0.05,1.25,80.43,1.27,79.68,-0.2,-5.23,-0.01,-0.04,0.0,0.0,0.0,0.0,1,0.001539,0.002458,0,0.0,0.0,0.0,
1692632430500243,2,1,0,99.0,7,46,1.62,1.49,4.81,150.4,-0.03,-1.42,-0.03,-4.17,-0.22,-0.45,-0.03,15.75,0.37,4.05,154.71,3.93,150.44,5.55,150.39,5.67,154.66,0,0.0,0,1,0x800,100,1898.32,1045.68,1887.68,21.28,19.52,1,2,2,1887.681396,1035.921509,1055.445923,1887.681396,1035.921509,1055.445923,1908.959473,1035.887695,1055.409912,-1.0,-1.0,-1.0,-1.0,0,0.0,0.0,1,2,-0.45,-4.2,4.7,147.0,4.7,147.0,-0.45,-4.2,-0.03,-0.22,4.68,146.59,4.81,150.4,-0.45,-4.2,-0.03,-0.22,0.0,0.0,0.0,0.0,0,0.029378,0.026728,0,0.0,0.0,0.0,
1692632430500243,2,1,0,97.0,8,27,1.87,1.56,10.3,244.35,-0.06,-1.79,-0.01,6.16,-0.0,-0.21,-0.01,26.04,0.59,9.37,248.66,9.23,244.39,11.1,244.33,11.24,248.6,0,0.0,0,14,0x2C00,100,1918.53,1042.61,1911.02,15.29,12.66,1,2,2,1910.881714,1036.302734,1048.742432,1911.022827,1036.278564,1048.933594,1926.175903,1036.254517,1048.908813,-1.0,-1.0,-1.0,-1.0,0,0.0,0.0,1,2,-0.21,6.1,9.75,233.97,9.75,233.97,-0.21,6.1,-0.01,-0.0,10.48,251.7,10.3,244.35,-0.21,6.1,-0.01,-0.0,0.0,0.0,0.0,0.0,0,0.033301,0.037464,0,0.0,0.0,0.0,
1692632431000151,2,1,0,95.0,6,61,1.71,1.41,7.78,8.98,-0.01,0.0,-0.01,-3.44,0.41,0.05,-0.01,16.53,0.57,8.03,13.05,7.94,8.97,9.65,8.94,9.74,13.01,0,0.0,0,6,0x800,100,3236.04,1150.69,3271.97,678.64,255.17,1,2,1,2896.720947,1027.266479,1213.733154,3271.966797,1023.110413,1278.277832,3575.364258,1022.661072,1277.08606,-1.0,-1.0,-1.0,-1.0,0,0.0,0.0,1,2,0.05,-3.48,7.74,8.98,7.77,8.97,0.04,-3.49,-0.01,0.41,8.19,9.6,8.21,9.63,0.49,-2.8,0.03,0.44,0.983749,0.983749,0.0,0.0,1,0.021201,0.009535,0,0.0,0.0,0.0,
1692632431000151,2,1,0,95.0,2,61,1.61,1.42,2.33,9.27,-0.01,-0.29,-0.03,0.63,0.46,-0.24,-0.03,20.63,0.61,1.59,13.13,1.87,9.29,3.47,9.4,3.19,13.24,3,0.67,0,5,0x0,100,2249.02,1149.63,2171.37,401.88,255.65,1,2,1,2048.074707,1026.157349,1216.456055,2171.36792,1021.799683,1277.450806,2449.959229,1021.613037,1273.155518,-1.0,-1.0,-1.0,-1.0,0,0.0,0.0,1,2,-0.24,0.62,2.29,9.24,2.32,9.25,-0.24,0.62,-0.03,0.46,2.55,10.47,2.59,10.51,-0.27,0.57,-0.03,0.46,0.984184,0.984184,0.0,0.0,1,-0.073057,-0.071659,0,0.0,0.0,0.0,
1692632431000151,2,1,0,95.0,9,29,1.79,2.01,13.12,22.54,-0.35,-0.64,-0.04,-5.94,0.51,-0.52,-0.04,14.0,0.66,12.85,26.63,13.93,22.5,15.67,22.96,14.58,27.09,0,0.0,0,17,0x1C00,100,2898.89,1091.15,2959.05,347.29,162.14,1,2,1,2725.242676,1014.233765,1153.454468,2959.050781,1010.081543,1172.219116,3072.532227,1010.449463,1169.243286,-1.0,-1.0,-1.0,-1.0,0,0.0,0.0,1,2,-0.52,-6.01,10.41,17.63,10.35,17.41,-0.48,-5.67,-0.04,0.51,14.0,24.35,14.1,24.35,-0.54,-6.13,-0.04,0.51,0.261983,0.261983,0.0,0.0,0,-0.256398,-0.151955,0,0.0,0.0,0.0,
1692632431000151,2,1,0,94.0,12,61,1.8,1.75,15.76,37.65,-0.41,0.21,0.06,-4.77,1.28,0.4,0.06,15.16,1.43,15.57,41.96,15.51,37.66,17.31,37.63,17.37,41.94,0,0.0,0,12,0x800,100,2619.34,1080.62,2611.06,161.6,87.34,1,2,1,2538.537109,1037.111328,1115.967041,2611.057617,1036.948853,1124.289551,2700.137207,1036.805786,1124.044678,-1.0,-1.0,-1.0,-1.0,0,0.0,0.0,1,1,0.4,-4.85,12.11,28.68,12.11,28.68,0.4,-4.85,0.06,1.28,15.8,37.97,15.78,37.7,0.4,-4.85,0.06,1.28,0.00563,0.00563,0.0,0.0,0,0.014217,0.0204,0,0.0,0.0,0.0,
1692632431000151,2,2,0,77.0,5,61,2.5,3.94,3.69,38.35,-0.05,0.36,0.05,0.58,0.73,0.56,0.05,20.57,0.89,2.53,48.37,2.62,38.39,5.12,38.41,5.03,48.39,0,0.0,0,8,0x1810,100,2013.21,1009.45,1966.05,152.53,195.11,1,2,1,1936.947998,937.002686,1093.442993,1966.051025,911.898132,1107.011353,2089.474609,912.076721,1106.606812,-1.0,-1.0,-1.0,-1.0,0,0.0,0.0,1,0,0.56,0.56,3.18,36.0,3.18,36.0,0.56,0.56,0.05,0.73,3.84,43.81,3.69,38.34,0.56,0.56,0.05,0.73,0.0,0.0,0.0,0.0,1,-0.008296,-0.007893,0,0.0,0.0,0.0,
1692632431000151,2,1,0,86.0,0,61,1.76,1.41,-0.08,39.68,0.0,-0.23,-0.0,0.89,0.26,-0.03,-0.0,20.9,0.42,-0.97,43.99,-0.97,39.71,0.79,39.71,0.79,43.99,1,0.0,1,9,0x0,100,1831.6,1068.55,1874.05,84.89,67.73,1,2,2,1789.155396,1034.818848,1102.665039,1874.045288,1034.688599,1102.419312,1874.045288,1034.688599,1102.419312,-1.0,-1.0,-1.0,-1.0,0,0.0,0.0,1,0,-0.03,0.89,-0.09,39.51,-0.09,39.51,-0.03,-1.32,-0.0,0.37,-0.1,40.42,-0.08,39.68,-0.03,0.89,-0.0,0.26,0.0,0.0,-0.001612,-1.997966,1,-0.00156,0.0,0,0.0,0.0,0.0,
1692632431000151,2,1,0,91.0,1,61,1.76,1.55,-2.95,56.24,-0.12,-0.39,-0.01,2.87,0.5,-0.11,-0.01,22.9,0.66,-3.92,56.23,-2.16,56.21,-2.11,60.41,-3.87,60.44,2,0.0,0,10,0x0,100,1734.38,1062.02,1761.52,67.66,53.45,1,1,2,1700.549316,1035.38916,1088.884521,1761.515137,1035.293701,1088.74353,1768.206909,1035.519531,1085.348145,-1.0,-1.0,-1.0,-1.0,0,0.0,0.0,1,0,-0.11,2.89,-2.64,50.29,-2.64,50.29,-0.11,2.89,-0.01,0.5,-2.96,56.63,-2.95,56.24,-0.11,2.89,-0.01,0.5,0.0,0.0,0.0,0.0,1,0.012066,0.007501,0,0.0,0.0,0.0,
1692632431000151,2,1,0,89.0,4,61,1.09,1.45,1.44,79.02,-0.13,-0.53,-0.01,1.52,0.31,-0.13,-0.01,21.52,0.47,0.92,83.31,0.87,79.04,2.01,79.02,2.06,83.3,0,0.0,0,3,0x0,100,1871.7,1056.63,1857.6,28.2,35.88,1,2,2,1857.603516,1038.691772,1074.572021,1857.603516,1038.691772,1074.572021,1885.80188,1038.64624,1074.511963,-1.0,-1.0,-1.0,-1.0,0,0.0,0.0,2,0,-0.13,1.51,1.16,69.49,1.16,69.49,-0.13,1.51,-0.01,0.31,1.25,75.36,1.44,79.02,-0.13,1.51,-0.01,0.31,0.0,0.0,0.0,0.0,0,0.011699,0.009734,0,0.0,0.0,0.0,
1692632431000151,2,8,0,99.0,3,61,2.0,1.86,0.65,84.1,1.28,-0.76,-0.03,-4.08,0.43,-0.33,-0.03,15.93,0.58,-0.35,89.73,-0.35,84.14,1.65,84.14,1.65,89.73,0,0.0,0,11,0x2510,100,1851.28,1018.04,1828.02,46.51,43.18,1,2,2,1828.021362,996.447937,1039.629517,1828.021362,996.447937,1039.629517,1874.530884,996.412231,1039.553467,-1.0,-1.0,-1.0,-1.0,0,0.0,0.0,1,0,-0.33,-4.08,40.35,5329.23,40.35,5329.23,-0.31,-4.17,-0.03,0.42,0.67,86.06,0.7,84.09,-0.33,-4.08,-0.03,0.43,0.0,0.0,0.0,0.0,1,-0.000962,0.0,0,0.0,0.0,0.0,
1692632431000151,2,1,0,99.0,7,61,1.64,1.55,3.96,153.72,-0.18,-1.31,-0.04,-0.42,0.6,-0.53,-0.04,19.57,0.76,3.3,158.02,3.2,153.75,4.84,153.72,4.93,157.99,0,0.0,0,1,0x1800,100,1887.8,1048.01,1877.29,21.01,19.91,1,2,2,1877.290039,1038.052856,1057.963257,1877.290039,1038.052856,1057.963257,1898.300171,1038.019043,1057.925781,-1.0,-1.0,-1.0,-1.0,0,0.0,0.0,1,2,-0.53,-0.44,3.46,134.23,3.46,134.23,-0.53,-0.44,-0.04,0.6,3.71,143.76,3.96,153.72,-0.53,-0.44,-0.04,0.6,0.0,0.0,0.0,0.0,0,0.022232,0.019843,0,0.0,0.0,0.0,
1692632431000151,2,1,0,94.0,10,11,1.79,1.45,9.4,195.82,-0.12,-0.95,0.0,6.2,0.13,0.04,0.0,26.16,0.28,8.77,200.12,8.77,195.85,10.56,195.85,10.56,200.12,0,0.0,0,19,0x800,100,1932.85,1045.82,1924.76,19.92,14.65,1,2,1,1922.884766,1038.495361,1052.837158,1924.75708,1038.491577,1053.143066,1942.805298,1038.462402,1053.108521,-1.0,-1.0,-1.0,-1.0,0,0.0,0.0,2,2,0.04,6.15,8.6,179.06,8.6,179.06,0.04,6.15,0.0,0.13,9.36,195.04,9.41,195.82,0.04,6.15,0.0,0.13,0.0,0.0,0.0,0.0,0,0.01839,0.00514,0,0.0,0.0,0.0,
1692632431000151,2,1,0,99.0,8,42,2.12,1.69,9.11,252.6,-0.38,-1.63,-0.02,10.87,0.47,-0.35,-0.02,30.83,0.63,8.18,256.92,8.04,252.65,10.16,252.58,10.3,256.85,0,0.0,0,14,0x800,100,1907.63,1045.31,1899.31,16.63,13.3,1,2,2,1899.309937,1038.661743,1051.965698,1899.309937,1038.661743,1051.965698,1915.941895,1038.634888,1051.937988,-1.0,-1.0,-1.0,-1.0,0,0.0,0.0,1,2,-0.35,10.82,7.06,195.61,7.06,195.61,-0.35,10.82,-0.02,0.47,8.63,239.42,9.11,252.6,-0.35,10.82,-0.02,0.47,0.0,0.0,0.0,0.0,0,0.005438,-0.065837,0,0.0,0.0,0.0,
1692632431499961,2,1,0,96.0,6,76,1.78,1.39,7.86,7.72,-0.01,0.01,-0.02,-2.93,0.62,0.02,-0.02,17.04,0.62,8.35,11.95,8.2,7.71,9.98,7.64,10.13,11.89,0,0.0,0,6,0x800,100,3446.65,1162.17,3507.74,844.63,283.9,1,2,1,3024.33252,1024.623779,1222.721191,3507.742676,1020.22052,1304.120361,3868.965088,1019.675354,1303.374878,-1.0,-1.0,-1.0,-1.0,0,0.0,0.0,1,2,0.02,-2.95,7.81,7.75,7.86,7.72,0.02,-2.95,-0.02,0.62,8.13,8.14,8.08,8.01,0.2,-2.72,-0.01,0.57,0.996648,0.996648,0.0,0.0,0,0.036223,0.032168,0,0.0,0.0,0.0,
1692632431499961,2,1,0,95.0,2,76,1.61,1.46,1.93,9.56,-0.01,-0.51,-0.06,0.77,0.59,-0.49,-0.06,20.76,0.59,1.13,13.42,1.41,9.58,3.02,9.7,2.73,13.54,3,0.51,0,5,0x0,100,2170.17,1139.89,2083.57,372.45,256.0,1,2,1,1983.947998,1017.71051,1209.530884,2083.566895,1011.889587,1267.893799,2356.39502,1011.829163,1263.774048,-1.0,-1.0,-1.0,-1.0,0,0.0,0.0,1,2,-0.49,0.77,1.9,9.53,1.92,9.54,-0.49,0.77,-0.06,0.59,2.1,10.74,2.12,10.72,-0.56,0.68,-0.07,0.59,0.984516,0.984516,0.0,0.0,1,-0.074462,-0.069373,0,0.0,0.0,0.0,
1692632431499961,2,1,0,95.0,9,44,1.79,1.98,12.58,20.99,-0.32,-0.55,-0.04,-3.24,0.78,-0.51,-0.04,16.73,0.78,12.21,25.19,12.93,20.98,14.69,21.28,13.97,25.49,0,0.0,0,17,0x1800,100,2902.68,1089.78,2947.67,353.67,170.26,1,2,1,2725.845215,1009.339722,1153.664795,2947.669922,1004.654724,1174.911255,3079.518799,1004.900452,1172.479858,-1.0,-1.0,-1.0,-1.0,0,0.0,0.0,1,2,-0.51,-3.26,10.22,16.74,10.29,16.88,-0.5,-1.75,-0.04,0.66,13.71,23.08,13.85,23.28,-0.52,-4.1,-0.04,0.85,0.357297,0.357297,0.0,0.0,0,-0.169123,-0.147808,0,0.0,0.0,0.0,
1692632431499961,2,1,0,92.0,12,76,1.78,1.75,16.19,36.65,-0.36,0.5,0.08,-3.23,1.62,0.57,0.08,16.73,1.62,16.02,40.88,16.08,36.65,17.86,36.68,17.8,40.91,0,0.0,0,12,0x1800,100,2662.39,1075.27,2659.61,171.74,89.67,1,2,1,2576.517822,1030.884155,1111.797607,2659.606934,1030.440063,1120.105103,2748.255371,1030.311646,1119.757446,-1.0,-1.0,-1.0,-1.0,0,0.0,0.0,1,1,0.57,-3.26,12.84,28.81,12.84,28.81,0.57,-3.26,0.08,1.62,16.23,36.9,16.21,36.7,0.57,-3.26,0.08,1.62,0.0064,0.0064,0.0,0.0,0,-0.013857,-0.029644,0,0.0,0.0,0.0,
1692632431499961,2,2,0,81.0,5,76,2.5,4.43,3.29,37.81,-0.25,-0.14,-0.04,0.19,0.75,-0.06,-0.04,20.17,0.75,2.44,47.82,2.5,37.84,5.0,37.85,4.94,47.84,0,0.0,0,8,0x2810,100,2010.87,1003.0,1962.13,152.94,222.5,1,2,1,1934.39624,920.421631,1098.324585,1962.13147,891.747375,1114.250854,2087.3396,891.967102,1113.828003,-1.0,-1.0,-1.0,-1.0,0,0.0,0.0,1,0,-0.06,0.19,3.04,30.68,3.04,30.68,-0.06,0.19,-0.04,0.75,3.17,32.03,3.29,37.81,-0.06,0.19,-0.04,0.75,0.0,0.0,0.0,0.0,1,-0.006026,-0.002271,0,0.0,0.0,0.0,
1692632431499961,2,1,0,89.0,0,76,1.8,1.49,-0.2,40.11,0.01,-0.19,-0.01,0.77,0.27,-0.11,-0.01,20.76,0.27,-1.08,44.42,-1.08,40.14,0.72,40.14,0.72,44.42,1,0.0,1,9,0x0,100,1827.4,1061.86,1870.25,85.69,71.01,1,2,2,1784.556885,1026.473755,1097.606201,1870.24646,1026.356567,1097.366943,1870.24646,1026.356567,1097.366943,-1.0,-1.0,-1.0,-1.0,0,0.0,0.0,1,0,-0.11,0.78,-0.18,39.55,-0.18,39.55,-0.11,-0.58,-0.01,0.33,-0.18,40.01,-0.2,40.11,-0.11,0.78,-0.01,0.27,0.0,0.0,-0.000799,-1.001983,1,-6.5e-05,0.0,0,0.0,0.0,0.0,
1692632431499961,2,1,5,94.0,11,5,1.7,1.62,12.23,49.92,-0.09,-0.14,-0.0,-2.11,0.12,-0.04,-0.0,17.85,0.12,12.13,53.78,11.97,49.93,13.67,49.87,13.82,53.71,0,0.0,0,24,0x800,100,2314.47,1057.44,2294.99,91.0,62.07,1,2,2,2268.973877,1026.985474,1084.797729,2294.988281,1026.407715,1088.481689,2359.973145,1026.307739,1088.381348,-1.0,-1.0,-1.0,-1.0,0,0.0,0.0,1,0,-0.04,-2.13,11.8,46.4,11.8,46.4,-0.04,-2.13,-0.0,0.12,11.51,45.2,12.23,49.94,-0.04,-2.13,-0.0,0.12,0.0,0.0,0.0,0.0,0,0.040003,0.040003,0,0.0,0.0,0.0,
1692632431499961,2,1,0,93.0,1,76,1.77,1.58,-3.2,58.53,-0.12,-0.39,-0.04,3.81,0.76,-0.28,-0.04,23.8,0.76,-4.11,58.51,-2.34,58.5,-2.31,62.72,-4.08,62.74,2,0.0,0,10,0x800,100,1731.99,1056.75,1758.42,65.07,52.57,1,1,2,1699.454712,1030.557373,1083.174927,1758.421875,1030.470947,1083.038208,1764.523682,1030.76355,1079.879639,-1.0,-1.0,-1.0,-1.0,0,0.0,0.0,1,0,-0.28,3.81,-2.82,52.48,-2.82,52.48,-0.28,3.81,-0.04,0.76,-3.22,60.22,-3.2,58.53,-0.28,3.81,-0.04,0.76,0.0,0.0,0.0,0.0,1,0.007606,0.01555,0,0.0,0.0,0.0,
1692632431499961,2,1,0,99.0,4,76,1.09,1.38,1.29,77.86,0.03,-0.29,-0.01,0.48,0.34,-0.15,-0.01,20.46,0.34,0.65,82.16,0.61,77.89,1.7,77.88,1.75,82.15,0,0.0,0,3,0x0,100,1865.03,1049.96,1851.32,27.42,34.75,1,2,2,1851.322632,1032.581421,1067.329224,1851.322632,1032.581421,1067.329224,1878.746094,1032.540161,1067.274292,-1.0,-1.0,-1.0,-1.0,0,0.0,0.0,1,0,-0.15,0.47,1.34,79.07,1.34,79.07,-0.15,0.47,-0.01,0.34,1.38,81.63,1.29,77.87,-0.15,0.47,-0.01,0.34,0.0,0.0,0.0,0.0,0,0.011434,0.011734,0,0.0,0.0,0.0,
1692632431499961,2,8,0,99.0,3,76,2.01,1.71,0.43,79.01,1.47,-0.57,-0.04,-5.57,0.42,-0.42,-0.04,14.42,0.42,-0.6,84.64,-0.57,79.05,1.44,79.06,1.41,84.65,0,0.0,0,11,0x2510,100,1846.98,1010.22,1822.15,49.66,42.34,1,2,2,1822.146851,989.052429,1031.390137,1822.146851,989.052429,1031.390137,1871.810669,989.028503,1031.317627,-1.0,-1.0,-1.0,-1.0,0,0.0,0.0,1,0,-0.42,-5.57,17.81,2452.96,17.47,2451.69,-0.38,-5.42,-0.04,0.31,0.44,82.4,0.43,79.01,-0.42,-5.57,-0.04,0.42,0.0,0.0,0.0,0.0,1,-0.006146,-0.04635,0,0.0,0.0,0.0,
1692632431499961,2,1,0,99.0,7,76,1.67,1.49,3.62,154.6,0.06,-0.89,-0.05,0.71,0.94,-0.59,-0.05,20.69,0.94,2.85,158.9,2.76,154.63,4.43,154.6,4.52,158.87,0,0.0,0,1,0x3800,100,1882.07,1041.61,1871.38,21.38,19.0,1,2,2,1871.380005,1032.110229,1051.106812,1871.380005,1032.110229,1051.106812,1892.758301,1032.077881,1051.070557,-1.0,-1.0,-1.0,-1.0,0,0.0,0.0,1,2,-0.59,0.7,3.81,160.81,3.81,160.81,-0.59,0.7,-0.05,0.94,3.57,150.74,3.62,154.6,-0.59,0.7,-0.05,0.94,0.0,0.0,0.0,0.0,0,0.020487,0.018547,0,0.0,0.0,0.0,
1692632431499961,2,1,0,96.0,8,57,1.87,1.76,8.23,255.91,0.08,-1.47,-0.09,8.92,0.23,-0.98,-0.09,28.89,0.23,7.57,260.21,7.45,255.94,9.32,255.88,9.44,260.16,0,0.0,0,14,0x1800,100,1901.13,1037.73,1893.89,14.48,13.64,1,2,2,1893.890747,1030.907837,1044.550293,1893.890747,1030.907837,1044.550293,1908.373535,1030.885742,1044.527222,-1.0,-1.0,-1.0,-1.0,0,0.0,0.0,1,2,-0.98,8.9,8.9,271.7,8.9,271.7,-0.98,8.9,-0.09,0.23,7.65,233.4,8.23,255.91,-0.98,8.9,-0.09,0.23,0.0,0.0,0.0,0.0,0,0.005908,-0.025979,0,0.0,0.0,0.0,
1692632431499961,2,1,0,92.0,10,26,1.79,1.93,12.61,265.45,-0.61,-0.72,-0.01,-6.77,0.24,-0.21,-0.01,13.2,0.24,11.94,269.75,11.94,265.47,13.73,265.48,13.73,269.75,0,0.0,0,19,0xC00,100,1931.32,1042.04,1925.38,14.81,14.45,1,2,1,1923.91687,1034.815674,1049.036621,1925.382324,1034.813477,1049.261353,1938.727783,1034.792847,1049.236694,-1.0,-1.0,-1.0,-1.0,0,0.0,0.0,2,2,-0.21,-6.79,9.31,193.31,9.31,193.31,-0.21,-6.79,-0.01,0.24,12.0,249.66,12.61,265.45,-0.21,-6.79,-0.01,0.24,0.0,0.0,0.0,0.0,0,0.011162,0.044624,0,0.0,0.0,0.0,
1692632432000059,2,1,0,95.0,6,91,1.79,1.41,7.71,6.41,-0.01,-0.1,-0.04,-2.6,0.63,-0.13,-0.04,17.41,0.63,8.53,10.65,8.51,6.37,10.3,6.37,10.32,10.64,0,0.0,0,6,0x800,100,3708.23,1178.97,3840.79,1071.6,331.82,1,1,1,3172.427979,1019.850891,1240.608276,3840.793213,1013.060852,1344.881592,4244.023438,1012.5849,1341.911499,-1.0,-1.0,-1.0,-1.0,0,0.0,0.0,1,2,-0.13,-2.56,7.71,6.41,7.71,6.45,-0.13,-2.56,-0.04,0.63,7.71,6.41,7.71,6.44,-0.22,-2.73,-0.07,0.5,0.997527,0.997527,0.0,0.0,0,0.004429,0.004155,0,0.0,0.0,0.0,
1692632432000059,2,1,0,96.0,2,91,1.63,1.5,1.55,10.59,-0.01,-0.58,-0.08,1.6,0.7,-0.64,-0.08,21.58,0.7,0.66,14.5,1.0,10.62,2.63,10.76,2.28,14.64,1,0.59,0,5,0x1000,100,2084.13,1127.59,1996.82,334.79,240.53,1,2,1,1916.737305,1013.568298,1197.016846,1996.820801,1007.327393,1247.860107,2251.526611,1007.368225,1243.942383,-1.0,-1.0,-1.0,-1.0,0,0.0,0.0,1,2,-0.64,1.61,1.53,10.53,1.55,10.55,-0.64,1.62,-0.08,0.7,1.66,11.58,1.69,11.65,-0.74,1.41,-0.09,0.68,0.964349,0.964349,0.0,0.0,1,-0.087707,-0.078538,0,0.0,0.0,0.0,
1692632432000059,2,1,0,95.0,9,59,1.92,1.93,11.61,19.16,-0.22,-0.65,-0.06,-2.26,0.8,-0.76,-0.06,17.77,0.8,11.5,23.71,11.92,19.15,13.83,19.33,13.41,23.89,0,0.0,0,17,0x1800,100,2918.18,1086.46,2950.02,390.83,179.94,1,2,1,2722.767334,1002.993713,1151.423706,2950.018555,996.490173,1176.426025,3113.601074,996.650757,1174.504272,-1.0,-1.0,-1.0,-1.0,0,0.0,0.0,1,2,-0.76,-2.19,10.02,16.34,10.05,16.4,-0.52,-1.05,-0.03,0.67,12.99,21.74,13.1,21.79,-0.99,-3.28,-0.08,0.92,0.487444,0.487444,0.0,0.0,0,-0.090961,-0.065608,0,0.0,0.0,0.0,
1692632432000059,2,1,0,94.0,12,91,1.79,1.75,16.1,34.47,-0.34,0.41,0.02,-3.25,1.46,0.22,0.02,16.8,1.46,16.32,38.71,16.44,34.45,18.22,34.5,18.11,38.76,0,0.0,0,12,0x800,100,2725.51,1074.65,2727.51,191.4,94.99,1,2,1,2629.8125,1027.817627,1112.977295,2727.51001,1027.160889,1122.147705,2821.210205,1027.035278,1121.717407,-1.0,-1.0,-1.0,-1.0,0,0.0,0.0,1,1,0.22,-3.16,13.06,27.55,13.06,27.55,0.22,-3.16,0.02,1.46,16.24,34.69,16.13,34.53,0.22,-3.16,0.02,1.46,0.008568,0.008568,0.0,0.0,0,-0.026363,-0.054634,0,0.0,0.0,0.0,
1692632432000059,2,1,0,89.0,0,91,1.9,1.5,-0.26,39.53,-0.01,0.03,-0.03,0.27,-0.01,-0.19,-0.03,20.23,-0.01,-1.23,43.85,-1.23,39.57,0.67,39.57,0.67,43.85,1,0.0,1,9,0x0,100,1822.69,1061.81,1868.72,92.06,72.47,1,2,2,1776.657715,1025.692749,1098.301514,1868.716309,1025.568359,1098.043091,1868.716309,1025.568359,1098.043091,-1.0,-1.0,-1.0,-1.0,0,0.0,0.0,1,0,-0.19,0.27,-0.27,38.24,-0.27,38.24,-0.19,0.27,-0.03,-0.01,-0.26,37.09,-0.26,39.53,-0.19,0.27,-0.03,-0.01,0.0,0.0,-9.5e-05,-0.118175,1,0.001121,0.0,0,0.0,0.0,0.0,
1692632432000059,2,1,0,84.0,11,20,2.02,1.62,14.94,52.61,-0.22,1.4,0.06,4.4,0.14,1.11,0.06,24.45,0.14,13.43,57.5,13.23,52.68,15.24,52.6,15.45,57.42,0,0.0,0,24,0x1800,100,2338.07,1059.45,2317.25,105.35,58.76,1,2,1,2285.398682,1030.33313,1084.352417,2317.250488,1030.072021,1088.835693,2390.749023,1029.960815,1088.731445,-1.0,-1.0,-1.0,-1.0,0,0.0,0.0,1,0,1.11,4.49,12.0,45.51,12.0,45.51,1.11,4.49,0.06,0.14,16.07,61.6,14.94,52.58,1.11,4.49,0.06,0.14,0.0,0.0,0.0,0.0,1,0.043325,-0.186408,0,0.0,0.0,0.0,
1692632432000059,2,1,0,92.0,1,91,1.8,1.6,-3.26,61.04,-0.22,0.03,-0.04,4.49,0.79,-0.31,-0.04,24.44,0.79,-4.28,61.02,-2.47,61.01,-2.45,65.32,-4.25,65.33,2,0.0,0,10,0x800,100,1731.31,1057.21,1757.22,63.56,51.0,1,1,2,1699.530273,1031.7948,1082.842407,1757.218506,1031.709595,1082.707275,1763.087769,1031.81958,1079.537231,-1.0,-1.0,-1.0,-1.0,0,0.0,0.0,1,0,-0.31,4.47,-2.77,51.15,-2.77,51.15,-0.31,4.47,-0.04,0.79,-3.29,61.23,-3.26,61.04,-0.31,4.47,-0.04,0.79,0.0,0.0,0.0,0.0,1,0.006164,0.01131,0,0.0,0.0,0.0,
1692632432000059,2,1,5,90.0,13,6,1.8,1.62,12.37,65.43,-0.16,0.2,-0.0,-18.61,-0.0,-0.16,-0.0,1.43,-0.0,13.05,69.65,12.88,65.41,14.68,65.34,14.85,69.58,0,0.0,0,27,0x800,100,2234.37,1052.72,2216.6,70.95,47.98,1,2,1,2198.895752,1029.000977,1074.151611,2216.604248,1028.730469,1076.713501,2269.847656,1028.650146,1076.633301,-1.0,-1.0,-1.0,-1.0,0,0.0,0.0,1,0,-0.16,-18.54,12.13,58.95,12.13,58.95,-0.16,-18.54,-0.0,-0.0,11.82,57.36,12.37,65.46,-0.16,-18.54,-0.0,-0.0,0.0,0.0,0.0,0.0,0,0.040264,0.039995,0,0.0,0.0,0.0,
1692632432000059,2,1,0,95.0,4,91,1.09,1.45,1.36,81.83,-0.13,0.3,-0.01,2.98,0.66,-0.16,-0.01,22.96,0.66,0.85,86.12,0.79,81.85,1.93,81.83,1.99,86.11,0,0.0,0,3,0x0,100,1868.67,1050.91,1855.05,27.25,34.67,1,2,2,1855.046875,1033.579102,1068.246216,1855.046875,1033.579102,1068.246216,1882.296387,1033.537842,1068.192261,-1.0,-1.0,-1.0,-1.0,0,0.0,0.0,2,0,-0.16,2.99,1.22,75.22,1.22,75.22,-0.16,2.99,-0.01,0.66,1.34,82.53,1.36,81.83,-0.16,2.99,-0.01,0.66,0.0,0.0,0.0,0.0,0,0.013257,0.011258,0,0.0,0.0,0.0,
1692632432000059,2,2,0,82.0,3,91,2.5,2.61,0.57,98.26,0.96,0.13,-0.04,-5.03,0.43,-0.42,-0.04,14.94,0.43,-0.68,108.3,-0.68,98.31,1.82,98.31,1.82,108.3,0,0.0,0,11,0x2410,100,1847.45,1014.67,1822.49,49.92,52.19,1,2,2,1822.493652,988.571106,1040.760986,1822.493652,988.571106,1040.760986,1872.410156,988.540527,1040.678345,-1.0,-1.0,-1.0,-1.0,0,0.0,0.0,1,0,-0.42,-5.03,1.95,343.15,1.95,343.15,-0.42,-5.03,-0.04,0.43,0.56,97.04,0.5,98.26,-0.42,-5.03,-0.04,0.43,0.0,0.0,0.0,0.0,1,0.000786,0.0,0,0.0,0.0,0.0,
1692632432000059,2,1,0,99.0,7,91,1.67,1.42,3.49,150.62,-0.11,0.17,-0.06,-1.83,0.31,-0.67,-0.06,18.16,0.31,2.66,154.92,2.57,150.65,4.24,150.62,4.34,154.89,0,0.0,0,1,0x3800,100,1880.78,1042.85,1869.81,21.94,18.65,1,2,2,1869.808472,1033.524414,1052.172241,1869.808472,1033.524414,1052.172241,1891.745605,1033.491211,1052.135376,-1.0,-1.0,-1.0,-1.0,0,0.0,0.0,1,2,-0.67,-1.81,3.21,138.35,3.21,138.35,-0.67,-1.81,-0.06,0.31,3.56,153.6,3.49,150.62,-0.67,-1.81,-0.06,0.31,0.0,0.0,0.0,0.0,0,0.022038,0.018077,0,0.0,0.0,0.0,
1692632432000059,2,1,5,97.0,5,3,1.03,1.45,9.48,212.39,-0.25,1.19,0.0,-0.05,0.0,0.0,0.0,19.97,0.0,8.96,212.42,10.0,212.37,10.17,216.64,9.14,216.69,0,0.0,0,28,0x2800,100,1924.52,1041.27,1919.71,9.61,13.52,1,2,2,1919.710205,1034.515381,1048.032593,1919.710205,1034.515381,1048.032593,1929.322754,1034.500854,1048.018311,-1.0,-1.0,-1.0,-1.0,0,0.0,0.0,4,-1,0.0,0.0,7.76,173.72,9.48,212.39,0.0,0.0,0.0,0.0,9.22,206.82,9.48,212.39,0.0,0.0,0.0,0.0,0.0,0.0,0.0,0.0,0,0.041889,0.041889,1,0.0,0.0,0.0,
1692632432000059,2,1,2,97.0,10,41,1.79,1.93,11.13,224.01,-0.63,-0.36,-0.13,-42.44,-0.02,-1.61,-0.13,-22.41,-0.02,10.55,228.31,10.46,224.03,12.25,223.99,12.34,228.27,0,0.0,0,19,0x1801,100,1936.04,1042.06,1928.59,16.71,17.1,1,2,1,1927.684204,1033.509033,1050.289307,1928.586548,1033.511597,1050.609253,1944.394653,1033.487671,1050.582886,-1.0,-1.0,-1.0,-1.0,0,0.0,0.0,1,2,-1.61,-42.38,7.53,152.06,7.53,152.06,-1.61,-42.38,-0.13,-0.02,11.13,225.81,11.13,224.01,-1.61,-42.38,-0.13,-0.02,0.0,0.0,0.0,0.0,0,0.016181,0.045759,0,0.0,0.0,0.0,
1692632432000059,2,1,0,99.0,8,72,1.78,1.59,8.28,253.35,-0.33,0.58,-0.06,5.4,0.13,-0.83,-0.06,25.42,0.13,7.51,257.66,7.39,253.39,9.17,253.34,9.29,257.61,0,0.0,0,14,0x1800,100,1900.95,1040.05,1893.99,13.93,12.46,1,2,2,1893.988281,1033.816406,1046.274902,1893.988281,1033.816406,1046.274902,1907.915649,1033.795288,1046.25293,-1.0,-1.0,-1.0,-1.0,0,0.0,0.0,1,2,-0.83,5.45,6.63,202.7,6.63,202.7,-0.83,5.45,-0.06,0.13,8.36,255.77,8.28,253.35,-0.83,5.45,-0.06,0.13,0.0,0.0,0.0,0.0,0,0.027071,0.028991,0,0.0,0.0,0.0,
1692632432500203,2,1,0,95.0,6,106,1.79,1.41,7.61,4.91,-0.01,-0.16,-0.05,-2.55,0.59,-0.2,-0.05,17.43,0.59,8.43,9.16,8.41,4.88,10.2,4.87,10.22,9.15,0,0.0,0,6,0x800,100,4029.99,1212.59,4242.14,1394.83,402.97,1,1,1,3332.576904,1020.462341,1270.610596,4242.136719,1011.110596,1414.078125,4727.408203,1010.549561,1409.84436,-1.0,-1.0,-1.0,-1.0,0,0.0,0.0,1,2,-0.2,-2.48,7.61,4.91,7.61,4.94,-0.2,-2.48,-0.05,0.59,7.61,4.91,7.61,4.94,-0.26,-2.62,-0.07,0.47,0.997527,0.997527,0.0,0.0,0,0.004517,0.004155,0,0.0,0.0,0.0,
1692632432500203,2,1,0,95.0,2,106,1.63,1.39,1.08,10.5,0.07,-0.74,-0.1,2.94,1.0,-0.83,-0.1,22.86,1.0,0.2,14.4,0.43,10.53,2.05,10.62,1.82,14.5,1,0.74,1,5,0x1000,100,2012.53,1126.14,1905.42,304.26,225.33,1,2,1,1860.399536,1018.859375,1190.371826,1905.415039,1013.47699,1238.803711,2164.654541,1013.361389,1235.775391,-1.0,-1.0,-1.0,-1.0,0,0.0,0.0,1,1,-0.83,2.95,1.09,10.49,1.07,10.38,-0.82,2.92,-0.1,0.99,1.21,11.88,1.2,11.9,-0.9,3.29,-0.11,1.1,0.920959,0.920959,-0.008282,-3.049299,1,-0.059307,-0.065084,0,0.0,0.0,0.0,
1692632432500203,2,1,0,94.0,9,74,1.73,1.79,10.54,17.3,-0.03,-1.01,-0.1,-2.04,0.7,-1.16,-0.1,17.97,0.7,10.54,21.41,10.81,17.29,12.53,17.4,12.27,21.52,0,0.0,0,17,0x1800,100,2919.7,1082.2,2944.76,380.7,182.94,1,2,1,2729.34668,998.60376,1149.71936,2944.75708,990.728088,1173.672363,3110.046387,990.866211,1172.141235,-1.0,-1.0,-1.0,-1.0,0,0.0,0.0,1,2,-1.16,-1.95,10.42,17.04,10.42,17.07,-0.09,0.29,0.01,0.79,10.95,18.01,10.67,17.56,-2.37,-4.46,-0.23,0.6,0.529049,0.529049,0.0,0.0,1,-0.063993,-0.066779,0,0.0,0.0,0.0,
1692632432500203,2,1,0,87.0,12,106,1.79,1.62,17.88,34.63,-0.25,2.12,0.32,-0.94,1.89,1.83,0.32,19.13,1.89,17.57,38.87,18.02,34.63,19.8,34.81,19.35,39.06,0,0.0,0,12,0x1800,100,2791.11,1075.62,2807.36,209.5,87.24,1,2,1,2686.359863,1032.426392,1110.750488,2807.363281,1031.994263,1119.239014,2895.861084,1031.872925,1118.513306,-1.0,-1.0,-1.0,-1.0,0,0.0,0.0,1,1,1.83,-0.78,14.43,29.35,14.43,29.35,1.83,-0.78,0.32,1.89,18.37,37.86,17.88,34.6,1.83,-0.78,0.32,1.89,0.0,0.0,0.0,0.0,0,-0.105118,-1.162364,0,0.0,0.0,0.0,
1692632432500203,2,2,0,78.0,14,106,2.5,2.77,3.82,36.67,1.38,0.17,-0.05,0.43,0.74,-0.14,-0.05,20.38,0.74,2.92,46.7,2.8,36.71,5.3,36.68,5.42,46.67,0,0.0,0,8,0x910,100,2033.01,961.37,1980.9,153.51,142.87,1,2,1,1956.251221,919.848511,1033.428467,1980.901611,889.93042,1032.800293,2109.765625,889.989502,1032.604492,-1.0,-1.0,-1.0,-1.0,0,0.0,0.0,1,0,-0.14,0.47,55.89,562.16,55.89,562.16,-0.14,0.47,-0.05,0.74,3.44,32.92,3.51,36.69,-0.14,0.47,-0.05,0.74,0.0,0.0,0.0,0.0,1,-0.000997,0.012403,0,0.0,0.0,0.0,
1692632432500203,2,1,0,87.0,0,106,1.78,1.56,-0.12,38.65,0.04,0.22,-0.01,-0.33,-0.26,-0.11,-0.01,19.58,-0.26,-1.03,42.95,-1.04,38.68,0.74,38.68,0.75,42.95,1,0.0,0,9,0x0,100,1828.77,1060.81,1872.84,88.13,77.01,1,2,2,1784.705811,1022.41748,1099.554565,1872.837646,1022.302979,1099.310181,1872.837646,1022.302979,1099.310181,-1.0,-1.0,-1.0,-1.0,0,0.0,0.0,1,0,-0.11,-0.34,-0.12,39.01,-0.12,39.01,-0.11,-0.34,-0.01,-0.26,-0.11,36.53,-0.12,38.64,-0.11,-0.34,-0.01,-0.26,0.0,0.0,0.000585,0.72597,0,0.001859,0.0,0,0.0,0.0,0.0,
1692632432500203,2,1,0,92.0,13,21,1.74,1.42,12.47,54.64,0.09,0.38,0.01,-16.7,0.03,-0.09,0.01,3.32,0.03,11.4,58.86,11.32,54.69,13.06,54.66,13.14,58.82,0,0.0,0,27,0xC00,100,2252.09,1053.57,2233.84,85.53,49.94,1,2,1,2209.322021,1029.098267,1075.628784,2233.843262,1028.605225,1078.543579,2294.854248,1028.514404,1078.420776,-1.0,-1.0,-1.0,-1.0,0,0.0,0.0,1,1,-0.09,-16.59,12.91,59.77,12.91,59.77,-0.09,-16.59,0.01,0.03,12.49,57.74,12.47,54.62,-0.09,-16.59,0.01,0.03,0.0,0.0,0.0,0.0,1,0.019206,0.000933,0,0.0,0.0,0.0,
1692632432500203,2,1,0,91.0,11,35,1.97,1.87,14.35,55.38,-0.24,0.57,-0.02,4.55,0.1,0.1,-0.02,24.59,0.1,15.13,60.05,15.19,55.35,17.15,55.37,17.1,60.07,0,0.0,0,24,0x800,100,2375.23,1056.97,2362.41,108.54,64.95,1,2,1,2320.958008,1025.356201,1085.422119,2362.405273,1024.49707,1089.446777,2429.497803,1024.411377,1089.245117,-1.0,-1.0,-1.0,-1.0,0,0.0,0.0,1,0,0.1,4.67,13.33,47.18,13.33,47.18,0.1,4.67,-0.02,0.1,13.89,49.24,14.35,55.42,0.1,4.67,-0.02,0.1,0.0,0.0,0.0,0.0,1,-0.012386,0.002511,0,0.0,0.0,0.0,
1692632432500203,2,1,0,91.0,1,106,1.88,1.57,-3.1,59.63,-0.09,0.24,-0.03,2.08,0.26,-0.27,-0.03,21.97,0.26,-4.23,63.95,-4.08,59.67,-2.2,59.74,-2.36,64.01,2,0.0,0,10,0x800,100,1733.64,1056.75,1764.36,61.43,50.98,1,2,2,1702.930542,1031.342773,1082.439697,1764.358643,1031.258057,1082.23645,1764.358643,1031.258057,1082.23645,-1.0,-1.0,-1.0,-1.0,0,0.0,0.0,1,0,-0.27,2.05,-2.87,54.4,-2.87,54.4,-0.27,2.05,-0.03,0.26,-3.18,60.48,-3.1,59.63,-0.27,2.05,-0.03,0.26,0.0,0.0,0.0,0.0,1,-0.012218,-0.009707,0,0.0,0.0,0.0,
1692632432500203,2,1,2,91.0,15,12,1.74,1.7,12.07,73.55,-0.03,0.13,-0.02,-44.55,-0.01,-0.5,-0.02,-24.53,-0.01,12.19,77.66,11.92,73.55,13.67,73.44,13.93,77.55,0,0.0,0,30,0x1801,100,2169.07,1048.76,2150.78,55.67,44.97,1,2,1,2141.233398,1026.761475,1069.413452,2150.779541,1026.276855,1071.244385,2196.907227,1026.199707,1071.192749,-1.0,-1.0,-1.0,-1.0,0,0.0,0.0,1,2,-0.5,-44.45,12.33,72.63,12.33,72.63,-0.5,-44.45,-0.02,-0.01,11.99,70.59,12.07,73.56,-0.5,-44.45,-0.02,-0.01,0.0,0.0,0.0,0.0,0,0.064665,0.039987,0,0.0,0.0,0.0,
1692632432500203,2,1,0,96.0,4,106,1.09,1.45,1.41,81.67,0.01,0.41,-0.03,2.13,0.46,-0.29,-0.03,22.06,0.46,0.91,85.96,0.84,81.69,1.98,81.67,2.05,85.94,0,0.0,0,3,0x0,100,1869.88,1050.08,1856.23,27.3,34.73,1,2,2,1856.22937,1032.710938,1067.442993,1856.22937,1032.710938,1067.442993,1883.530884,1032.669312,1067.390381,-1.0,-1.0,-1.0,-1.0,0,0.0,0.0,1,0,-0.29,2.15,1.39,80.3,1.39,80.3,-0.29,2.15,-0.03,0.46,1.4,80.82,1.41,81.67,-0.29,2.15,-0.03,0.46,0.0,0.0,0.0,0.0,0,0.016872,0.012127,0,0.0,0.0,0.0,
1692632432500203,2,2,0,80.0,3,106,2.5,2.45,0.63,97.65,1.29,0.36,-0.04,-3.6,0.63,-0.48,-0.04,16.33,0.63,-0.62,107.69,-0.62,97.7,1.88,97.7,1.88,107.69,0,0.0,0,11,0x2510,100,1848.79,1011.93,1823.68,50.22,49.27,1,2,2,1823.676514,987.292908,1036.565186,1823.676514,987.292908,1036.565186,1873.894409,987.263489,1036.486206,-1.0,-1.0,-1.0,-1.0,0,0.0,0.0,1,0,-0.48,-3.59,9.69,1530.9,9.69,1530.9,-0.48,-3.59,-0.04,0.63,0.6,93.62,0.63,97.65,-0.48,-3.59,-0.04,0.63,0.0,0.0,0.0,0.0,1,-0.002363,0.0,0,0.0,0.0,0.0,
1692632432500203,2,1,0,99.0,7,106,1.65,1.45,3.66,147.54,0.08,0.55,-0.05,-2.85,0.09,-0.72,-0.05,17.1,0.09,2.92,151.85,2.84,147.58,4.48,147.55,4.56,151.82,0,0.0,0,1,0x1800,100,1885.1,1042.73,1874.09,22.03,19.4,1,2,2,1874.088013,1033.107422,1051.969971,1874.089478,1033.029297,1052.431641,1896.12146,1032.995605,1052.393311,-1.0,-1.0,-1.0,-1.0,0,0.0,0.0,1,2,-0.72,-2.82,3.87,156.16,3.87,156.16,-0.72,-2.82,-0.05,0.09,3.63,146.18,3.64,147.55,-0.72,-2.82,-0.05,0.09,0.0,0.0,0.0,0.0,0,0.02109,0.01896,0,0.0,0.0,0.0,
1692632432500203,2,1,0,94.0,8,87,1.84,1.61,8.52,254.71,0.0,1.36,-0.05,5.35,0.36,-0.82,-0.05,25.34,0.36,7.66,259.02,7.53,254.75,9.51,254.69,9.64,258.96,0,0.0,0,14,0x1800,100,1902.52,1039.84,1894.82,15.4,12.51,1,2,2,1894.817139,1033.582764,1046.092407,1894.817139,1033.582764,1046.092407,1910.221313,1033.55896,1046.067505,-1.0,-1.0,-1.0,-1.0,0,0.0,0.0,2,2,-0.82,5.43,8.24,246.31,8.24,246.31,-0.82,5.43,-0.05,0.36,8.03,239.92,8.72,254.69,-0.82,5.43,-0.05,0.36,0.0,0.0,0.0,0.0,0,0.03091,0.029733,0,0.0,0.0,0.0,
1692632433000049,2,1,0,95.0,6,121,1.79,1.41,7.48,3.66,-0.01,-0.25,-0.05,-2.3,0.9,-0.27,-0.05,17.47,0.55,8.3,7.9,8.28,3.62,10.07,3.62,10.09,7.89,0,0.0,0,6,0x800,100,4402.0,1247.38,4724.32,1815.03,491.28,1,1,1,3494.489258,1014.426941,1295.976318,4724.322754,1001.743103,1493.025635,5309.515625,1001.169556,1487.004395,-1.0,-1.0,-1.0,-1.0,0,0.0,0.0,1,2,-0.27,-2.25,7.48,3.66,7.48,3.67,-0.27,-2.25,-0.05,0.9,7.48,3.66,7.48,3.66,-0.31,-2.37,-0.07,0.8,0.997527,0.997527,0.0,0.0,0,0.004376,0.004155,0,0.0,0.0,0.0,
1692632433000049,2,1,0,94.0,2,121,1.68,1.4,0.82,11.78,0.06,-0.69,-0.08,3.26,1.28,-0.77,-0.08,22.99,0.93,-0.1,15.82,0.09,11.81,1.77,11.89,1.58,15.9,1,0.78,1,5,0x1000,100,1959.21,1114.69,1849.12,269.3,205.91,1,2,1,1824.557983,1016.282959,1175.296021,1849.123535,1011.737122,1217.6427,2093.855469,1011.589294,1215.293091,-1.0,-1.0,-1.0,-1.0,0,0.0,0.0,1,1,-0.77,3.27,0.82,11.49,0.81,11.51,-0.75,3.23,-0.07,1.27,0.88,12.51,0.88,12.83,-0.85,3.4,-0.09,1.31,0.799315,0.799315,0.006186,2.512897,1,-0.047264,-0.043105,0,0.0,0.0,0.0,
1692632433000049,2,1,0,95.0,9,89,1.76,1.74,10.15,16.57,-0.07,-0.88,-0.06,-1.13,1.17,-0.99,-0.06,18.66,0.83,10.14,20.76,10.34,16.56,12.1,16.65,11.9,20.84,0,0.0,0,17,0x1800,100,2918.02,1086.36,2939.05,395.85,185.11,1,2,1,2720.095703,1000.716492,1152.040649,2939.046875,993.806274,1178.913696,3115.947266,993.841187,1177.435547,-1.0,-1.0,-1.0,-1.0,0,0.0,0.0,1,2,-0.99,-1.07,9.73,15.82,10.03,16.33,-0.41,-0.02,-0.02,0.97,10.17,16.62,10.31,16.88,-1.72,-2.39,-0.1,1.42,0.558622,0.558622,0.0,0.0,1,-0.047885,-0.029992,0,0.0,0.0,0.0,
1692632433000049,2,2,0,84.0,14,121,2.5,4.97,4.09,35.66,-0.3,0.5,0.03,-0.03,0.89,0.27,0.03,19.72,0.55,3.5,45.67,3.49,35.69,5.99,35.69,6.0,45.67,0,0.0,0,8,0xA10,100,2068.54,985.88,2021.89,171.0,263.68,1,2,1,1983.043701,891.168335,1099.648682,2021.887939,854.04425,1117.721558,2154.046143,854.315063,1117.299194,-1.0,-1.0,-1.0,-1.0,0,0.0,0.0,1,0,0.27,-0.01,3.41,27.98,3.41,27.98,0.27,-0.01,0.03,0.89,3.88,32.13,4.09,35.67,0.27,-0.01,0.03,0.89,0.0,0.0,0.0,0.0,1,0.000336,0.011106,0,0.0,0.0,0.0,
1692632433000049,2,1,0,92.0,0,121,1.78,1.5,-0.19,39.27,0.01,-0.02,-0.04,0.29,0.36,-0.28,-0.04,20.01,0.02,-1.01,43.56,-1.02,39.3,0.75,39.29,0.77,43.55,1,0.0,0,9,0x0,100,1829.59,1059.05,1872.84,86.5,73.06,1,2,2,1786.336914,1022.627319,1095.80542,1872.837769,1022.514404,1095.575806,1872.837769,1022.514404,1095.575806,-1.0,-1.0,-1.0,-1.0,0,0.0,0.0,1,0,-0.28,0.29,-0.26,38.65,-0.26,38.65,-0.28,0.29,-0.04,0.36,-0.26,38.61,-0.19,39.26,-0.28,0.29,-0.04,0.36,0.0,0.0,0.000585,0.72597,0,0.003194,0.0,0,0.0,0.0,0.0,
1692632433000049,2,1,0,93.0,11,50,1.92,1.83,13.99,49.33,-0.26,-0.0,-0.06,-1.2,0.29,-0.33,-0.06,18.62,-0.06,14.8,53.88,14.79,49.3,16.71,49.3,16.72,53.88,0,0.0,0,24,0x800,100,2422.27,1056.85,2408.77,119.57,70.85,1,2,1,2362.485107,1022.250732,1087.333008,2408.773438,1021.422974,1092.270752,2482.056396,1021.328186,1092.075928,-1.0,-1.0,-1.0,-1.0,0,0.0,0.0,1,0,-0.33,-1.11,12.79,41.4,12.79,41.4,-0.33,-1.11,-0.06,0.29,14.0,45.48,13.99,49.38,-0.33,-1.11,-0.06,0.29,0.0,0.0,0.0,0.0,1,0.001968,0.009646,0,0.0,0.0,0.0,
1692632433000049,2,1,0,91.0,13,36,1.71,1.5,12.95,54.35,-0.02,0.41,0.02,-8.12,0.45,0.05,0.02,11.69,0.1,12.03,58.46,12.0,54.38,13.71,54.37,13.73,58.45,0,0.0,0,27,0x800,100,2275.9,1052.09,2259.77,87.4,53.01,1,2,1,2232.199951,1025.994019,1075.437744,2259.766602,1025.591187,1078.596924,2319.604004,1025.508545,1078.46106,-1.0,-1.0,-1.0,-1.0,0,0.0,0.0,1,0,0.05,-8.03,12.39,54.05,12.39,54.05,0.05,-8.03,0.02,0.45,12.63,55.16,12.95,54.33,0.05,-8.03,0.02,0.45,0.0,0.0,0.0,0.0,1,0.006734,0.028194,0,0.0,0.0,0.0,
1692632433000049,2,1,0,89.0,1,121,1.85,1.52,-2.97,59.32,-0.08,0.17,-0.02,1.15,0.37,-0.23,-0.02,20.85,0.03,-4.07,63.63,-3.93,59.36,-2.08,59.42,-2.22,63.7,2,0.0,0,10,0x0,100,1737.71,1052.75,1768.16,60.89,49.8,1,2,2,1707.268188,1027.936401,1077.846802,1768.158813,1027.855469,1077.653809,1768.158813,1027.855469,1077.653809,-1.0,-1.0,-1.0,-1.0,0,0.0,0.0,1,0,-0.23,1.13,-2.78,54.77,-2.78,54.77,-0.23,1.13,-0.02,0.37,-2.89,57.08,-2.97,59.32,-0.23,1.13,-0.02,0.37,0.0,0.0,0.0,0.0,1,-0.023714,-0.033974,0,0.0,0.0,0.0,
1692632433000049,2,1,1,92.0,15,27,1.64,1.66,13.76,70.7,-0.03,0.58,0.03,-18.48,0.42,0.11,0.03,1.34,0.07,12.29,74.69,12.13,70.77,13.78,70.7,13.93,74.62,0,0.0,0,30,0xC00,100,2184.5,1045.47,2168.42,57.81,45.5,1,2,1,2155.59375,1023.169006,1066.349731,2168.421875,1022.721619,1068.225098,2213.40625,1022.655273,1068.15918,-1.0,-1.0,-1.0,-1.0,0,0.0,0.0,1,0,0.11,-18.38,12.44,69.13,12.44,69.13,0.11,-18.38,0.03,0.42,13.61,75.8,13.76,70.66,0.11,-18.38,0.03,0.42,0.0,0.0,0.0,0.0,0,0.040523,0.060789,0,0.0,0.0,0.0,
1692632433000049,2,2,0,99.0,3,121,2.5,2.0,0.7,96.09,1.57,0.09,-0.04,-3.02,1.01,-0.54,-0.04,16.7,0.67,-0.55,106.14,-0.55,96.14,1.95,96.14,1.95,106.14,0,0.0,0,11,0x3110,100,1850.49,1006.14,1824.99,51.0,40.78,1,2,2,1824.985474,985.754944,1026.530884,1824.985474,985.754944,1026.530884,1875.988281,985.726685,1026.460938,-1.0,-1.0,-1.0,-1.0,0,0.0,0.0,1,0,-0.54,-3.02,35.45,4643.41,38.56,4642.74,-0.51,-3.83,-0.04,0.79,0.72,98.17,0.7,96.09,-0.54,-3.02,-0.04,1.01,0.0,0.0,0.0,0.0,1,0.001067,0.0,0,0.0,0.0,0.0,
1692632433499930,2,1,0,95.0,6,136,1.79,1.41,7.34,2.76,-0.01,-0.28,-0.05,-1.68,1.45,-0.31,-0.05,17.71,0.58,8.17,7.0,8.15,2.73,9.94,2.72,9.96,6.99,0,0.0,0,6,0xA00,100,4759.79,1283.09,5205.07,2263.01,582.51,1,1,1,3628.286865,1008.156372,1317.441162,5205.074219,991.83667,1574.342407,5891.295898,991.294067,1566.158203,-1.0,-1.0,-1.0,-1.0,0,0.0,0.0,1,2,-0.31,-1.61,7.34,2.76,7.34,2.75,-0.31,-1.61,-0.05,1.45,7.34,2.76,7.34,2.74,-0.34,-1.71,-0.06,1.37,0.997527,0.997527,0.0,0.0,0,0.00447,0.004155,0,0.0,0.0,0.0,
1692632433499930,2,1,0,94.0,2,136,1.76,1.4,0.56,12.72,0.06,-0.61,-0.06,3.2,1.62,-0.73,-0.06,22.52,0.74,-0.31,17.03,-0.31,12.75,1.46,12.75,1.46,17.03,1,0.8,1,5,0x1000,100,1914.76,1104.39,1793.95,241.63,192.29,1,2,2,1793.947876,1008.239258,1200.532104,1793.947876,1008.239258,1200.532104,2035.575073,1007.997192,1199.359741,-1.0,-1.0,-1.0,-1.0,0,0.0,0.0,1,1,-0.73,3.2,0.57,12.64,0.56,12.63,-0.69,3.5,-0.05,1.69,0.58,12.99,0.56,12.88,-0.81,2.64,-0.07,1.47,0.652479,0.652479,-0.004309,-1.89597,1,-0.012258,0.0,0,0.0,0.0,0.0,
1692632433499930,2,1,0,93.0,9,104,1.89,1.65,9.71,15.91,0.02,-0.9,-0.05,-0.77,1.67,-1.05,-0.05,18.64,0.79,9.81,20.42,9.95,15.9,11.84,15.96,11.7,20.48,0,0.0,0,17,0x1800,100,2919.66,1078.23,2935.86,431.53,182.44,1,2,1,2703.890625,994.957031,1140.983643,2935.861816,987.010559,1169.451904,3135.424316,987.017456,1168.115967,-1.0,-1.0,-1.0,-1.0,0,0.0,0.0,1,1,-1.05,-0.68,10.06,16.39,9.87,16.1,-0.34,0.21,-0.0,1.45,9.21,14.85,9.53,15.72,-1.83,-1.66,-0.11,1.91,0.521668,0.521668,0.0,0.0,1,-0.030853,-0.023517,0,0.0,0.0,0.0,
1692632433499930,2,2,0,87.0,14,136,2.5,4.67,3.77,31.56,-0.17,0.04,-0.08,-2.7,0.73,-0.26,-0.08,16.65,-0.15,2.92,41.56,3.23,31.59,5.72,31.66,5.42,41.64,0,0.0,0,8,0x810,100,2073.34,977.17,2028.83,205.62,277.75,1,2,1,1970.532104,881.386658,1095.607056,2028.832153,838.302246,1116.047485,2176.151611,839.083374,1115.374878,-1.0,-1.0,-1.0,-1.0,0,0.0,0.0,1,1,-0.26,-2.66,3.46,27.74,3.46,27.74,-0.26,-2.66,-0.08,0.73,3.57,28.67,3.77,31.61,-0.26,-2.66,-0.08,0.73,0.011905,0.011905,0.0,0.0,1,-0.030719,-0.016215,0,0.0,0.0,0.0,
1692632433499930,2,1,0,83.0,0,136,1.78,1.41,-0.5,39.35,0.12,-0.22,-0.1,0.75,1.01,-0.59,-0.1,20.07,0.13,-0.89,39.3,0.88,39.29,0.91,43.55,-0.86,43.56,1,0.0,0,9,0x1000,100,1835.95,1051.11,1879.18,86.45,68.61,1,2,2,1792.729126,1016.909058,1085.616089,1879.180054,1016.804321,1085.412598,1879.180054,1016.804321,1085.412598,-1.0,-1.0,-1.0,-1.0,0,0.0,0.0,1,0,-0.59,0.75,-0.54,42.49,-0.54,42.49,-0.59,0.75,-0.1,1.01,-0.53,41.3,-0.5,39.35,-0.59,0.75,-0.1,1.01,0.0,0.0,0.000585,0.72597,0,0.006798,-0.002912,0,0.0,0.0,0.0,
1692632433499930,2,1,0,94.0,11,65,1.86,1.8,14.66,45.29,-0.23,0.54,-0.01,-3.06,0.66,0.11,-0.01,16.4,-0.22,14.96,49.73,14.94,45.28,16.81,45.27,16.82,49.73,0,0.0,0,24,0x800,100,2475.39,1053.29,2463.33,130.36,75.53,1,2,1,2410.206299,1016.493286,1085.563965,2463.32666,1015.530273,1091.056885,2540.568848,1015.439087,1090.855957,-1.0,-1.0,-1.0,-1.0,0,0.0,0.0,1,0,0.11,-2.92,13.17,38.93,13.17,38.93,0.11,-2.92,-0.01,0.66,14.72,43.7,14.66,45.31,0.11,-2.92,-0.01,0.66,0.0,0.0,0.0,0.0,1,0.002923,-0.002608,0,0.0,0.0,0.0,
1692632433499930,2,1,0,93.0,13,51,1.68,1.62,13.6,53.75,-0.09,0.94,0.06,-5.38,1.08,0.44,0.06,14.06,0.2,12.77,57.79,12.7,53.78,14.38,53.75,14.45,57.76,0,0.0,0,27,0x800,100,2304.79,1047.71,2288.98,87.49,57.76,1,2,1,2261.048096,1019.364258,1073.263062,2288.976807,1018.834656,1076.592285,2348.541748,1018.757507,1076.476196,-1.0,-1.0,-1.0,-1.0,0,0.0,0.0,1,0,0.44,-5.26,12.46,50.89,12.46,50.89,0.44,-5.26,0.06,1.08,13.58,55.63,13.6,53.73,0.44,-5.26,0.06,1.08,0.0,0.0,0.0,0.0,1,0.017436,0.037438,0,0.0,0.0,0.0,
1692632433499930,2,1,0,93.0,1,136,1.77,1.51,-3.1,61.58,-0.06,0.11,-0.07,2.87,1.22,-0.47,-0.07,22.16,0.34,-3.84,61.55,-2.08,61.54,-2.05,65.75,-3.82,65.77,2,0.0,0,10,0x800,100,1744.91,1047.01,1770.41,60.9,47.67,1,1,2,1714.464233,1023.245544,1070.964966,1770.412842,1023.171936,1070.846924,1775.360474,1023.39856,1068.092407,-1.0,-1.0,-1.0,-1.0,0,0.0,0.0,1,0,-0.47,2.84,-2.7,57.52,-2.7,57.52,-0.47,2.84,-0.07,1.22,-3.13,67.02,-3.1,61.59,-0.47,2.84,-0.07,1.22,0.0,0.0,0.0,0.0,1,0.006697,0.04025,0,0.0,0.0,0.0,
1692632433499930,2,1,0,92.0,15,42,1.88,1.73,13.43,68.76,-0.0,0.3,-0.0,-11.93,1.04,-0.34,-0.0,7.52,0.17,12.61,73.08,12.11,68.81,13.97,68.59,14.48,72.86,0,0.0,0,30,0x800,100,2200.46,1039.41,2176.81,59.22,48.59,1,2,2,2170.851562,1015.758728,1061.582153,2176.812256,1015.110962,1063.702026,2230.072754,1015.014526,1063.705566,-1.0,-1.0,-1.0,-1.0,0,0.0,0.0,1,0,-0.34,-11.8,13.0,68.61,13.0,68.61,-0.34,-11.8,-0.0,1.04,13.41,70.85,13.43,68.74,-0.34,-11.8,-0.0,1.04,0.0,0.0,0.0,0.0,0,0.117968,0.16924,0,0.0,0.0,0.0,
1692632433499930,2,2,0,99.0,3,136,2.5,1.76,0.7,96.21,1.87,0.3,-0.05,-1.17,1.81,-0.61,-0.05,18.16,0.94,-0.55,106.25,-0.55,96.26,1.95,96.26,1.95,106.25,0,0.0,0,11,0x3110,100,1850.31,997.75,1824.85,50.93,35.84,1,2,2,1824.845337,979.827332,1015.670837,1824.845337,979.827332,1015.670837,1875.777588,979.805054,1015.612122,-1.0,-1.0,-1.0,-1.0,0,0.0,0.0,1,0,-0.61,-1.16,35.45,4643.41,38.3,4640.94,-0.52,-3.44,-0.04,0.79,0.72,99.19,0.73,96.21,-0.61,-1.16,-0.05,1.81,0.0,0.0,0.0,0.0,1,0.001589,0.0,0,0.0,0.0,0.0,
1692632434000027,2,1,5,83.0,5,3,0.35,1.3,7.04,5.22,-0.01,0.03,0.0,-0.05,0.0,0.0,0.0,19.01,-0.47,6.87,5.22,7.22,5.21,7.22,5.22,6.87,5.23,0,0.0,0,40,0xA04,100,3769.4,1214.74,3722.34,99.08,356.05,1,1,1,3719.858154,1036.698364,1392.263184,3722.335938,1036.709106,1392.762451,3818.93335,1036.572632,1392.62439,-1.0,-1.0,-1.0,-1.0,0,0.0,0.0,3,-1,0.0,0.0,7.04,5.21,7.04,5.21,0.0,0.0,0.0,0.0,7.88,6.05,7.88,6.05,0.0,0.0,0.0,0.0,0.997527,0.997527,0.0,0.0,0,-3.141593,0.0,1,0.0,0.0,0.0,
1692632434000027,2,1,0,94.0,2,151,1.72,1.46,0.38,13.95,0.02,-0.54,-0.03,3.27,1.06,-0.63,-0.03,22.27,0.6,-0.47,18.26,-0.47,13.98,1.25,13.98,1.25,18.26,1,0.91,1,5,0x1000,100,1885.29,1101.95,1776.25,218.08,184.93,1,2,2,1776.25061,1009.482788,1194.414062,1776.25061,1009.482788,1194.414062,1994.333252,1009.258911,1193.382935,-1.0,-1.0,-1.0,-1.0,0,0.0,0.0,1,1,-0.63,3.27,0.37,13.38,0.37,13.39,-0.61,3.11,-0.03,1.02,0.4,14.61,0.4,14.65,-0.67,3.47,-0.03,1.12,0.555451,0.555451,-0.006817,-3.124878,1,0.001715,0.0,0,0.0,0.0,0.0,
1692632434000027,2,1,0,94.0,9,119,1.65,1.72,9.38,15.65,-0.07,-0.75,-0.02,0.04,1.17,-0.85,-0.02,19.11,0.7,9.39,19.59,9.55,15.65,11.2,15.71,11.04,19.66,0,0.0,0,17,0x1800,100,2892.1,1088.13,2908.38,384.85,192.49,1,2,1,2699.680664,998.593628,1156.252441,2908.37793,991.878906,1184.371094,3084.528809,991.890686,1182.963379,-1.0,-1.0,-1.0,-1.0,0,0.0,0.0,1,1,-0.85,0.11,9.0,14.91,8.99,14.96,-0.98,-0.17,-0.09,0.79,10.14,17.02,10.12,16.98,-0.62,0.62,0.13,1.9,0.655502,0.655502,0.0,0.0,1,-0.040095,-0.034483,0,0.0,0.0,0.0,
1692632434000027,2,1,0,94.0,0,16,1.46,1.44,14.09,18.51,-0.09,-0.14,-0.01,-5.48,-0.41,-0.26,-0.01,13.62,-0.88,13.86,21.98,13.72,18.52,15.18,18.46,15.31,21.92,0,0.0,0,36,0x800,100,3134.01,1094.07,3152.55,316.07,138.03,1,2,1,2975.980469,1025.589478,1143.957642,3152.54834,1025.049927,1163.081909,3292.04541,1024.852417,1162.869385,-1.0,-1.0,-1.0,-1.0,0,0.0,0.0,1,2,-0.26,-5.39,13.24,17.44,13.24,17.44,-0.26,-5.39,-0.01,-0.41,14.08,18.66,14.17,18.6,-0.26,-5.39,-0.01,-0.41,0.085463,0.085463,0.0,0.0,0,0.03854,0.271149,0,0.0,0.0,0.0,
1692632434000027,2,2,0,91.0,14,151,2.49,4.48,3.44,26.03,-0.28,-0.42,-0.13,-6.18,-0.56,-0.6,-0.13,12.85,-1.03,2.68,36.02,2.76,26.06,5.26,26.08,5.17,36.04,0,0.0,0,8,0x1810,100,2094.09,983.57,2033.94,233.47,319.49,1,2,1,1977.356445,877.513672,1113.268433,2033.940552,823.828186,1143.313965,2210.824707,824.461548,1142.565552,-1.0,-1.0,-1.0,-1.0,0,0.0,0.0,1,2,-0.6,-6.16,2.98,21.26,2.98,21.26,-0.6,-6.16,-0.13,-0.56,3.61,26.13,3.45,26.17,-0.6,-6.16,-0.13,-0.56,0.027166,0.027166,0.0,0.0,1,-0.00875,-0.01119,0,0.0,0.0,0.0,
1692632434000027,2,1,0,94.0,11,80,1.84,1.77,15.09,41.01,-0.28,0.55,0.02,-4.51,0.03,0.28,0.02,14.6,-0.44,15.06,45.4,15.05,41.02,16.89,41.01,16.89,45.4,0,0.0,0,24,0x800,100,2539.83,1061.08,2529.92,146.93,81.64,1,2,1,2466.361816,1021.052612,1095.200928,2529.922363,1020.255066,1101.899292,2613.292236,1020.149597,1101.658203,-1.0,-1.0,-1.0,-1.0,0,0.0,0.0,1,1,0.28,-4.41,12.77,34.02,12.77,34.02,0.28,-4.41,0.02,0.03,15.06,40.42,15.1,41.05,0.28,-4.41,0.02,0.03,0.004117,0.004117,0.0,0.0,1,0.000795,-0.009707,0,0.0,0.0,0.0,
1692632434000027,2,1,0,94.0,13,66,1.75,1.59,13.86,52.89,-0.26,0.7,0.06,-3.78,0.79,0.35,0.06,15.32,0.32,13.45,57.09,13.4,52.9,15.15,52.88,15.2,57.06,0,0.0,0,27,0x800,100,2336.77,1056.95,2321.53,95.38,57.56,1,2,1,2289.077148,1028.21875,1081.723877,2321.528564,1028.165649,1085.724609,2384.457031,1028.076416,1085.584717,-1.0,-1.0,-1.0,-1.0,0,0.0,0.0,1,0,0.35,-3.69,11.67,44.39,11.67,44.39,0.35,-3.69,0.06,0.79,13.68,52.35,13.86,52.88,0.35,-3.69,0.06,0.79,0.0,0.0,0.0,0.0,1,0.01231,0.034512,0,0.0,0.0,0.0,
1692632434000027,2,1,0,90.0,1,151,1.75,1.37,-2.62,57.16,-0.02,0.1,-0.02,3.45,0.84,-0.27,-0.02,22.44,0.37,-3.42,57.1,-1.67,57.12,-1.74,61.33,-3.49,61.3,2,0.0,0,10,0x0,100,1750.33,1051.54,1779.28,61.45,46.48,1,2,2,1719.604858,1028.380493,1074.935669,1779.281738,1028.296997,1074.775757,1781.056885,1028.343628,1071.725952,-1.0,-1.0,-1.0,-1.0,0,0.0,0.0,1,0,-0.27,3.43,-2.49,55.16,-2.49,55.16,-0.27,3.43,-0.02,0.84,-2.61,57.99,-2.62,57.16,-0.27,3.43,-0.02,0.84,0.0,0.0,0.0,0.0,0,-0.015084,-0.029347,0,0.0,0.0,0.0,
1692632434000027,2,1,0,91.0,15,57,1.8,1.67,12.89,63.17,-0.14,-0.34,-0.03,-11.24,0.68,-0.76,-0.03,7.85,0.21,12.26,67.42,11.67,63.22,13.46,62.97,14.04,67.17,0,0.0,0,30,0x1800,100,2218.17,1047.61,2192.78,60.55,50.98,1,2,1,2187.892578,1022.511719,1070.402588,2192.783447,1022.121521,1073.103394,2248.437988,1022.025513,1073.144531,-1.0,-1.0,-1.0,-1.0,0,0.0,0.0,1,0,-0.76,-11.16,11.39,56.89,11.39,56.89,-0.76,-11.16,-0.03,0.68,12.79,64.08,12.89,63.16,-0.76,-11.16,-0.03,0.68,0.0,0.0,0.0,0.0,0,0.137794,0.17883,0,0.0,0.0,0.0,
1692632434000027,2,1,0,67.0,4,12,0.78,1.45,-1.53,72.25,-0.02,0.35,-0.01,-1.18,-0.25,-0.13,-0.01,17.81,-0.72,-1.93,76.54,-1.92,72.27,-1.14,72.27,-1.15,76.54,0,0.0,0,37,0x0,100,1795.55,1045.79,1805.43,22.39,39.18,1,2,2,1784.354858,1026.231201,1065.42688,1805.433594,1026.202515,1065.380371,1806.744019,1026.353271,1063.391602,-1.0,-1.0,-1.0,-1.0,0,0.0,0.0,2,0,-0.13,-1.19,-1.59,75.35,-1.59,75.35,-0.13,-1.19,-0.01,-0.25,-1.75,83.15,-1.37,72.24,-0.13,-1.19,-0.01,-0.25,0.0,0.0,0.0,0.0,0,-0.003352,-0.014815,0,0.0,0.0,0.0,
1692632434000027,2,2,0,99.0,3,151,2.5,1.61,1.05,94.72,1.84,0.12,-0.01,-1.33,1.2,-0.51,-0.01,17.68,0.73,-0.2,104.76,-0.2,94.76,2.3,94.76,2.3,104.76,0,0.0,0,11,0x3110,100,1857.77,1001.64,1831.91,51.72,33.37,1,2,2,1831.914307,984.956116,1018.323425,1831.914307,984.956116,1018.323425,1883.630737,984.928345,1018.260986,-1.0,-1.0,-1.0,-1.0,0,0.0,0.0,1,0,-0.51,-1.32,35.45,4643.41,38.04,4639.33,-0.54,-3.05,-0.04,0.79,1.03,93.24,1.01,94.72,-0.51,-1.32,-0.01,1.2,0.0,0.0,0.0,0.0,1,0.001754,0.0,0,0.0,0.0,0.0,
1692632434500269,2,1,0,71.0,5,18,0.19,1.21,6.97,5.08,-0.01,0.05,0.0,-0.07,0.0,0.0,0.0,18.88,-0.16,6.88,5.08,7.06,5.08,7.06,5.09,6.88,5.09,3,0.98,0,40,0xA04,100,3787.72,1234.33,3762.7,55.2,339.58,0,1,1,3760.117432,1064.493652,1403.598145,3762.700684,1064.53772,1404.117432,3815.314941,1064.459106,1404.037842,-1.0,-1.0,-1.0,-1.0,0,0.0,0.0,3,-1,0.0,0.0,6.97,5.08,6.97,5.08,0.0,0.0,0.0,0.0,8.34,6.44,8.34,6.44,0.0,0.0,0.0,0.0,0.997527,0.997527,0.0,0.0,0,-3.141593,0.0,0,0.0,0.0,0.0,
1692632434500269,2,1,0,96.0,2,166,1.71,1.45,0.31,15.14,-0.02,-0.32,0.01,1.28,0.13,-0.49,0.01,20.16,-0.03,-0.54,19.45,-0.54,15.17,1.17,15.17,1.17,19.45,1,0.9,1,5,0x0,100,1872.98,1107.05,1772.01,201.94,170.87,1,2,2,1772.006958,1021.617981,1192.485596,1772.006958,1021.617981,1192.485596,1973.950684,1021.361816,1191.538574,-1.0,-1.0,-1.0,-1.0,0,0.0,0.0,1,1,-0.49,1.28,0.29,14.12,0.3,14.47,-0.46,1.25,0.01,0.13,0.33,15.95,0.32,15.51,-0.5,1.3,0.01,0.13,0.361371,0.361371,0.001415,0.71389,1,0.003765,0.0,0,0.0,0.0,0.0,
1692632434500269,2,1,0,94.0,9,134,1.68,1.68,9.41,16.07,-0.05,-0.45,0.04,0.57,0.97,-0.62,0.04,19.55,0.81,9.47,20.06,9.62,16.06,11.3,16.13,11.14,20.13,3,0.89,0,17,0x1800,100,2877.8,1090.04,2892.27,378.55,183.89,1,2,1,2688.52124,1004.373291,1155.24292,2892.272217,998.098083,1181.990967,3067.074707,998.075195,1180.64563,-1.0,-1.0,-1.0,-1.0,0,0.0,0.0,1,1,-0.62,0.67,9.26,15.64,9.3,15.78,-0.35,0.91,0.03,0.64,9.93,16.89,9.55,16.43,-0.93,0.38,0.06,1.36,0.541363,0.541363,0.0,0.0,1,-0.038818,-0.013465,0,0.0,0.0,0.0,
1692632434500269,2,1,0,95.0,0,31,1.68,1.64,15.94,19.52,-0.27,-0.24,-0.02,-4.68,-0.71,-0.45,-0.02,14.37,-0.87,16.46,23.52,16.34,19.51,18.02,19.46,18.14,23.47,0,0.0,0,36,0x800,100,3291.43,1102.03,3326.11,373.1,149.25,1,2,1,3104.873779,1028.254517,1154.415283,3326.108154,1027.403687,1176.65686,3477.977051,1027.178833,1176.317505,-1.0,-1.0,-1.0,-1.0,0,0.0,0.0,1,2,-0.45,-4.51,13.42,16.12,12.85,15.5,-0.38,-2.44,-0.02,-0.7,16.32,20.01,16.48,20.22,-0.46,-4.87,-0.03,-0.72,0.147732,0.147732,0.0,0.0,0,0.030096,0.013891,0,0.0,0.0,0.0,
1692632434500269,2,2,0,92.0,14,166,2.53,4.16,3.46,22.84,-0.14,-0.29,-0.1,-6.5,-0.87,-0.54,-0.1,12.41,-1.03,2.68,32.97,2.67,22.87,5.2,22.87,5.21,32.97,3,0.44,0,8,0x1810,100,2122.23,983.8,2052.14,264.58,334.67,1,2,1,1989.941284,878.912781,1116.912354,2052.136719,816.464722,1151.132446,2254.521973,817.022949,1150.354248,-1.0,-1.0,-1.0,-1.0,0,0.0,0.0,1,2,-0.54,-6.47,3.21,20.51,3.21,20.51,-0.54,-6.47,-0.1,-0.87,3.56,23.0,3.47,22.93,-0.54,-6.47,-0.1,-0.87,0.036612,0.036612,0.0,0.0,1,0.00065,-0.005098,0,0.0,0.0,0.0,
1692632434500269,2,1,0,94.0,11,95,1.8,1.76,15.73,37.9,-0.24,1.02,0.09,-4.86,-0.27,0.62,0.09,14.19,-0.43,15.52,42.2,15.51,37.91,17.3,37.91,17.31,42.19,0,0.0,0,24,0x1800,100,2612.8,1065.97,2605.71,161.18,87.49,1,2,1,2532.204102,1023.256287,1102.339844,2605.712646,1022.221985,1109.714478,2693.388916,1022.106506,1109.452515,-1.0,-1.0,-1.0,-1.0,0,0.0,0.0,1,1,0.62,-4.69,13.46,32.21,13.46,32.21,0.62,-4.69,0.09,-0.27,15.91,38.4,15.74,37.93,0.62,-4.69,0.09,-0.27,0.005684,0.005684,0.0,0.0,0,0.002441,-0.020892,0,0.0,0.0,0.0,
1692632434500269,2,1,0,93.0,13,81,1.77,1.59,14.26,51.63,-0.19,0.84,0.05,-3.07,0.55,0.29,0.05,15.95,0.39,14.05,55.87,13.99,51.65,15.75,51.62,15.82,55.84,0,0.0,0,27,0x800,100,2369.17,1058.83,2354.41,100.46,58.93,1,2,1,2318.937988,1029.628418,1084.285645,2354.407959,1029.368042,1088.300293,2419.393799,1029.272949,1088.156128,-1.0,-1.0,-1.0,-1.0,0,0.0,0.0,1,0,0.29,-2.92,12.76,45.6,12.76,45.6,0.29,-2.92,0.05,0.55,14.14,50.72,14.26,51.64,0.29,-2.92,0.05,0.55,0.0,0.0,0.0,0.0,1,0.01467,0.036381,0,0.0,0.0,0.0,
1692632434500269,2,1,0,99.0,1,166,1.72,1.33,-2.39,61.12,-0.03,0.43,-0.01,5.27,0.83,-0.22,-0.01,24.12,0.67,-3.28,61.07,-1.56,61.09,-1.61,65.28,-3.33,65.26,2,0.0,0,10,0x0,100,1759.82,1055.09,1786.45,56.69,42.45,1,2,2,1731.471558,1033.947998,1076.460083,1786.454834,1033.86438,1076.316772,1788.16333,1033.812744,1073.61145,-1.0,-1.0,-1.0,-1.0,0,0.0,0.0,1,0,-0.22,5.25,-2.34,58.49,-2.34,58.49,-0.22,5.25,-0.01,0.83,-2.54,63.66,-2.39,61.12,-0.22,5.25,-0.01,0.83,0.0,0.0,0.0,0.0,0,-0.011161,-0.025376,0,0.0,0.0,0.0,
1692632434500269,2,1,0,86.0,15,72,1.71,1.56,14.15,61.94,-0.03,0.92,0.12,-8.24,0.7,0.26,0.12,10.78,0.54,12.8,66.17,12.16,62.02,13.85,61.76,14.49,65.91,0,0.0,0,30,0x800,100,2239.14,1050.36,2214.47,58.24,48.58,1,2,2,2210.024902,1026.469238,1072.079834,2214.471436,1026.074097,1074.652588,2268.262207,1025.974487,1074.697876,-1.0,-1.0,-1.0,-1.0,0,0.0,0.0,1,0,0.26,-8.09,12.87,60.42,12.87,60.42,0.26,-8.09,0.12,0.7,14.29,67.29,14.15,61.9,0.26,-8.09,0.12,0.7,0.0,0.0,0.0,0.0,0,0.152411,0.193495,0,0.0,0.0,0.0,
1692632434500269,2,2,0,99.0,3,166,2.5,1.79,1.3,95.88,1.78,0.5,-0.01,0.4,1.14,-0.52,-0.01,19.29,0.98,0.05,105.93,0.05,95.93,2.55,95.93,2.55,105.93,0,0.0,0,11,0x3110,100,1862.65,1005.45,1837.13,51.14,36.58,1,2,2,1837.085938,991.405762,1024.599609,1837.125488,987.157532,1023.740601,1888.223145,987.127319,1023.67334,-1.0,-1.0,-1.0,-1.0,0,0.0,0.0,1,0,-0.52,0.42,35.45,4643.41,37.76,4637.92,-0.56,-2.66,-0.04,0.79,1.28,94.31,1.3,95.88,-0.52,0.42,-0.01,1.14,0.0,0.0,0.0,0.0,1,0.002282,0.000282,0,0.0,0.0,0.0,
1692632434500269,2,1,0,91.0,6,12,1.43,1.45,10.55,139.55,-0.24,1.43,-0.0,-11.73,-0.25,-0.06,-0.0,7.26,-0.41,9.84,139.62,11.27,139.52,11.56,143.78,10.13,143.88,0,0.0,0,42,0x800,100,1985.03,1044.59,1974.96,20.22,20.45,1,2,2,1974.918823,1034.316895,1054.171997,1974.957764,1034.362671,1054.81665,1995.143555,1034.332764,1054.792725,-1.0,-1.0,-1.0,-1.0,0,0.0,0.0,2,2,-0.06,-11.62,9.08,119.9,9.08,119.9,-0.06,-11.62,-0.0,-0.25,10.87,143.89,10.53,139.56,-0.06,-11.62,-0.0,-0.25,0.0,0.0,0.0,0.0,0,0.068823,0.069074,0,0.0,0.0,0.0,
1692632434500269,2,1,2,99.0,7,12,1.62,1.45,10.0,155.17,-0.17,1.2,-0.01,-66.46,-0.26,-0.45,-0.01,-47.48,-0.41,9.36,159.07,9.24,155.2,10.86,155.16,10.98,159.03,0,0.0,0,41,0x2801,100,1963.23,1042.58,1953.64,21.97,18.43,1,2,1,1952.24646,1033.354004,1051.341309,1953.640137,1033.364746,1051.795044,1974.218018,1033.33374,1051.762207,-1.0,-1.0,-1.0,-1.0,0,0.0,0.0,4,2,-0.45,-66.35,7.31,113.36,10.0,155.17,-0.45,-66.35,-0.01,-0.26,8.79,136.73,10.0,155.17,-0.45,-66.35,-0.01,-0.26,0.0,0.0,0.0,0.0,0,0.029784,0.029784,0,0.0,0.0,0.0,
1692632434500269,2,1,5,98.0,4,3,1.22,1.49,11.23,197.74,-0.29,2.1,-0.0,-0.28,-0.0,-0.0,-0.0,18.72,-0.16,10.62,197.78,11.83,197.72,12.06,201.99,10.85,202.05,0,0.0,0,43,0x800,100,1948.44,1041.61,1942.36,12.15,14.87,1,2,2,1942.361572,1034.172852,1049.040649,1942.361572,1034.172852,1049.040649,1954.51062,1034.154663,1049.023682,-1.0,-1.0,-1.0,-1.0,0,0.0,0.0,1,2,-0.0,-0.16,9.24,162.5,9.24,162.5,-0.0,-0.16,-0.0,-0.0,11.07,194.95,11.24,197.74,-0.0,-0.16,-0.0,-0.0,0.0,0.0,0.0,0.0,0,0.053002,0.053002,1,0.0,0.0,0.0,
1692632435000002,2,1,0,73.0,5,33,0.18,1.23,6.9,5.01,-0.01,0.02,0.0,-0.03,0.0,0.0,0.0,18.83,0.0,6.81,5.02,6.99,5.01,6.99,5.02,6.81,5.03,0,0.0,0,40,0xA04,0,3788.64,1234.97,3764.5,53.51,348.29,0,1,1,3761.88916,1060.786987,1408.585693,3764.500488,1060.824341,1409.115356,3815.395996,1060.74707,1409.037109,-1.0,-1.0,-1.0,-1.0,0,0.0,0.0,3,-1,0.0,0.0,6.9,5.01,6.9,5.01,0.0,0.0,0.0,0.0,8.14,6.24,8.14,6.24,0.0,0.0,0.0,0.0,0.997527,0.997527,0.0,0.0,0,-3.141593,0.0,0,0.0,0.0,0.0,
1692632435000002,2,1,0,94.0,0,46,1.6,1.55,15.11,15.98,-0.2,-0.56,-0.05,-5.02,-0.95,-0.63,-0.05,13.87,-0.95,15.7,19.8,15.64,15.96,17.25,15.94,17.31,19.77,0,0.0,0,36,0x1800,0,3481.2,1113.3,3540.24,459.72,169.34,1,2,1,3251.333496,1029.59729,1169.689697,3540.237793,1028.627563,1197.97168,3711.056641,1028.373779,1197.359741,-1.0,-1.0,-1.0,-1.0,0,0.0,0.0,1,2,-0.63,-4.96,13.31,13.87,13.23,13.83,-0.28,-3.58,-0.02,-0.85,15.84,16.86,16.1,17.12,-0.82,-5.68,-0.07,-1.0,0.34477,0.34477,0.0,0.0,0,0.015858,0.021683,0,0.0,0.0,0.0,
1692632435000002,2,1,0,95.0,9,149,1.81,1.69,9.47,16.3,0.02,-0.26,0.1,0.87,0.77,-0.33,0.1,19.75,0.77,9.42,20.63,9.53,16.3,11.34,16.35,11.23,20.68,0,0.0,0,17,0x800,0,2859.91,1082.46,2868.65,394.67,183.29,1,2,1,2662.577393,999.065186,1147.569214,2868.64917,990.814026,1174.103394,3057.246338,990.797058,1172.900513,-1.0,-1.0,-1.0,-1.0,0,0.0,0.0,1,1,-0.33,0.92,9.7,16.79,9.31,15.96,-0.16,0.97,0.07,0.44,9.6,16.59,9.65,16.69,-0.52,0.86,0.13,1.15,0.533975,0.533975,0.0,0.0,1,-0.026233,-0.062883,0,0.0,0.0,0.0,
1692632435000002,2,1,0,95.0,2,181,1.75,1.43,0.27,16.68,0.01,-0.27,0.04,0.25,-0.41,-0.34,0.04,19.08,-0.41,-0.6,20.99,-0.6,16.71,1.16,16.71,1.16,20.99,1,0.83,1,5,0x0,100,1866.2,1099.89,1771.43,189.54,154.54,1,2,2,1771.427734,1022.619568,1177.154907,1771.427734,1022.619568,1177.154907,1960.971436,1022.375244,1176.324219,-1.0,-1.0,-1.0,-1.0,0,0.0,0.0,1,1,-0.34,0.25,0.27,16.14,0.25,15.64,-0.31,0.25,0.04,-0.39,0.28,17.09,0.27,16.92,-0.34,0.25,0.04,-0.42,0.187929,0.187929,-0.000661,-0.364127,1,0.002372,0.0,0,0.0,0.0,0.0,
1692632435000002,2,2,0,91.0,14,181,2.4,3.98,3.47,20.09,-0.01,-0.29,-0.05,-6.23,-0.79,-0.38,-0.05,12.62,-0.79,2.71,29.71,2.72,20.12,5.12,20.12,5.11,29.71,3,0.88,0,8,0x810,100,2153.66,975.31,2083.31,291.48,360.43,1,2,1,2007.92334,867.370117,1118.72583,2083.310547,795.099548,1155.525635,2299.40332,795.817932,1154.659058,-1.0,-1.0,-1.0,-1.0,0,0.0,0.0,1,2,-0.38,-6.22,3.47,19.92,3.47,19.92,-0.38,-6.22,-0.05,-0.79,3.53,20.32,3.47,20.1,-0.38,-6.22,-0.05,-0.79,0.060201,0.060201,0.0,0.0,1,-0.000575,0.010079,0,0.0,0.0,0.0,
1692632435000002,2,1,0,94.0,11,110,1.79,1.8,16.63,37.31,-0.29,1.16,0.14,-3.21,-0.04,1.0,0.14,15.69,-0.04,16.64,41.58,16.77,37.31,18.56,37.36,18.43,41.63,0,0.0,0,24,0x1800,100,2679.75,1068.88,2680.16,175.04,90.71,1,2,1,2592.227539,1024.575562,1106.493652,2680.159912,1023.522461,1114.234009,2767.264404,1023.419922,1113.840576,-1.0,-1.0,-1.0,-1.0,0,0.0,0.0,1,1,1.0,-3.14,13.82,30.79,13.82,30.79,1.0,-3.14,0.14,-0.04,16.42,36.93,16.63,37.31,1.0,-3.14,0.14,-0.04,0.0,0.0,0.0,0.0,0,-0.03137,-0.088824,0,0.0,0.0,0.0,
1692632435000002,2,1,0,91.0,13,96,1.83,1.67,13.85,48.57,-0.2,-0.07,-0.04,-4.05,0.15,-0.28,-0.04,14.84,0.15,13.92,52.93,13.78,48.57,15.61,48.52,15.74,52.88,0,0.0,0,27,0x800,100,2394.6,1060.78,2377.83,109.52,65.43,1,2,1,2339.842285,1028.554565,1088.814209,2377.830811,1028.069946,1093.497437,2449.363281,1027.962646,1093.36731,-1.0,-1.0,-1.0,-1.0,0,0.0,0.0,1,0,-0.28,-3.99,12.49,42.48,12.49,42.48,-0.28,-3.99,-0.04,0.15,13.7,46.77,13.85,48.58,-0.28,-3.99,-0.04,0.15,0.0,0.0,0.0,0.0,1,0.030394,0.042021,0,0.0,0.0,0.0,
1692632435000002,2,1,0,99.0,1,181,1.74,1.37,-2.37,63.68,0.02,0.04,-0.01,5.46,0.63,-0.24,-0.01,24.28,0.63,-3.26,63.63,-1.52,63.65,-1.57,67.85,-3.31,67.82,2,0.0,0,10,0x0,100,1763.58,1053.51,1789.68,54.63,41.88,1,0,0,1736.265137,1032.653687,1074.589478,1789.678101,1032.574585,1074.45105,1790.895508,1032.681274,1072.033203,-1.0,-1.0,-1.0,-1.0,0,0.0,0.0,1,0,-0.24,5.45,-2.35,63.3,-2.35,63.3,-0.24,5.45,-0.01,0.63,-2.39,64.56,-2.37,63.68,-0.24,5.45,-0.01,0.63,0.0,0.0,0.0,0.0,0,-0.013113,-0.022289,0,0.0,0.0,0.0,
1692632435000002,2,2,0,99.0,3,181,2.5,1.9,1.31,93.88,1.76,-0.09,0.0,-0.78,0.62,-0.5,0.0,18.06,0.62,0.07,103.92,0.06,93.93,2.56,93.93,2.57,103.92,0,0.0,0,11,0x2110,100,1863.51,1005.51,1837.43,52.17,39.56,1,2,2,1837.429321,985.726196,1025.289917,1837.429321,985.726196,1025.289917,1889.598145,985.696228,1025.219482,-1.0,-1.0,-1.0,-1.0,0,0.0,0.0,1,0,-0.5,-0.78,35.45,4643.41,37.48,4636.7,-0.58,-2.27,-0.04,0.79,1.33,96.83,1.31,93.88,-0.5,-0.78,0.0,0.62,0.0,0.0,0.0,0.0,1,0.001426,-0.031416,0,0.0,0.0,0.0,
1692632435000002,2,1,2,99.0,7,27,1.64,1.45,9.22,142.28,0.03,-0.26,-0.02,-39.82,-0.34,-0.88,-0.02,-20.95,-0.34,8.54,146.22,8.49,142.31,10.13,142.29,10.18,146.2,0,0.0,0,41,0x1C01,100,1963.85,1042.0,1953.78,25.1,20.08,1,0,1,1951.296387,1032.024292,1051.573486,1953.780396,1031.963501,1052.042114,1976.39624,1031.929688,1052.001709,-1.0,-1.0,-1.0,-1.0,0,0.0,0.0,1,2,-0.88,-39.78,9.64,148.83,9.64,148.83,-0.88,-39.78,-0.02,-0.34,9.54,147.25,9.55,142.27,-0.88,-39.78,-0.02,-0.34,0.0,0.0,0.0,0.0,0,0.00054,0.011715,0,0.0,0.0,0.0,
1692632435000002,2,1,0,99.0,6,27,1.75,1.65,11.78,153.74,-0.32,0.47,-0.01,-4.77,-0.4,-0.2,-0.01,14.11,-0.4,10.8,153.83,12.54,153.71,12.84,157.97,11.1,158.09,0,0.0,0,42,0xC00,100,1985.79,1044.6,1974.6,22.39,21.14,1,2,2,1974.595215,1034.026123,1055.170044,1974.595215,1034.026123,1055.170044,1996.981445,1033.991943,1055.1427,-1.0,-1.0,-1.0,-1.0,0,0.0,0.0,1,2,-0.2,-4.72,9.41,123.66,9.41,123.66,-0.2,-4.72,-0.01,-0.4,11.96,157.56,11.78,153.73,-0.2,-4.72,-0.01,-0.4,0.0,0.0,0.0,0.0,1,0.065343,0.069407,0,0.0,0.0,0.0,
1692632435000002,2,1,5,99.0,8,4,0.96,1.45,13.23,156.35,0.02,0.65,-0.0,-9.13,-0.0,-0.03,-0.0,9.76,-0.0,12.76,156.4,13.71,156.33,14.05,160.59,13.1,160.66,0,0.0,0,44,0x800,100,2002.94,1041.42,1996.91,12.1,18.27,1,2,2,1996.892212,1032.334229,1050.129028,1996.90564,1032.287842,1050.56189,2008.98877,1032.268921,1050.547363,-1.0,-1.0,-1.0,-1.0,0,0.0,0.0,1,2,-0.03,-9.07,12.98,153.39,12.98,153.39,-0.03,-9.07,-0.0,-0.0,12.4,146.41,12.93,156.36,-0.03,-9.07,-0.0,-0.0,0.0,0.0,0.0,0.0,0,0.080365,0.080365,0,0.0,0.0,0.0,
1692632435000002,2,1,2,99.0,4,18,1.45,1.45,10.0,178.94,-0.03,0.36,-0.01,-26.91,-0.13,-0.43,-0.01,-8.03,-0.13,9.37,182.43,9.36,178.97,10.81,178.96,10.82,182.42,0,0.0,0,43,0x801,100,1946.55,1041.09,1939.5,17.84,16.01,1,2,1,1937.62915,1033.107422,1048.819092,1939.501221,1033.084717,1049.096558,1955.473511,1033.060669,1049.067505,-1.0,-1.0,-1.0,-1.0,0,0.0,0.0,1,2,-0.43,-26.87,9.79,175.29,9.79,175.29,-0.43,-26.87,-0.01,-0.13,9.98,178.58,10.25,178.93,-0.43,-26.87,-0.01,-0.13,0.0,0.0,0.0,0.0,0,0.012048,0.012048,0,0.0,0.0,0.0,
1692632435500040,2,1,0,77.0,5,48,0.37,1.3,7.63,5.82,-0.01,-0.07,0.0,0.09,0.0,0.0,0.0,18.86,0.03,7.44,5.83,7.81,5.82,7.82,5.83,7.44,5.84,0,0.0,0,40,0xA04,0,3764.63,1204.98,3718.59,96.62,327.71,1,1,1,3716.315186,1041.11792,1368.409424,3718.592041,1041.127197,1368.832764,3812.937012,1040.984863,1368.688477,-1.0,-1.0,-1.0,-1.0,0,0.0,0.0,3,-1,0.0,0.0,7.63,5.82,7.63,5.82,0.0,0.0,0.0,0.0,8.54,6.74,8.54,6.74,0.0,0.0,0.0,0.0,0.997527,0.997527,0.0,0.0,0,-3.141593,0.0,0,0.0,0.0,0.0,
1692632435500040,2,1,0,94.0,0,61,1.6,1.54,14.42,12.75,-0.19,-1.19,-0.1,-5.9,-1.11,-1.04,-0.1,12.8,-1.08,15.03,16.54,14.95,12.73,16.54,12.69,16.63,16.5,0,0.0,0,36,0x1A00,0,3724.51,1128.96,3816.24,597.67,204.15,1,2,1,3425.678711,1028.268066,1191.257935,3816.235352,1026.885986,1231.040161,4023.350342,1026.580322,1230.33728,-1.0,-1.0,-1.0,-1.0,0,0.0,0.0,1,2,-1.04,-6.06,14.42,12.75,14.49,12.84,0.25,-3.56,0.01,-0.92,14.42,12.75,14.38,12.7,-1.73,-7.38,-0.15,-1.21,0.34477,0.34477,0.0,0.0,0,0.021152,0.021683,0,0.0,0.0,0.0,
1692632435500040,2,1,0,94.0,9,164,1.75,1.73,9.67,17.1,-0.03,-0.17,0.17,1.58,0.82,0.02,0.17,20.33,0.85,9.67,21.28,9.74,17.09,11.5,17.13,11.42,21.31,0,0.0,0,17,0x800,0,2842.21,1082.88,2848.0,362.56,179.24,1,2,1,2660.932861,1000.484863,1147.792725,2847.996094,993.263428,1172.505859,3023.494385,993.204468,1171.494873,-1.0,-1.0,-1.0,-1.0,0,0.0,0.0,1,1,0.02,1.47,9.61,16.94,9.57,16.89,0.2,1.55,0.13,0.49,9.93,17.58,9.75,17.28,-0.15,1.41,0.2,1.11,0.477757,0.477757,0.0,0.0,1,-0.018681,-0.022555,0,0.0,0.0,0.0,
1692632435500040,2,1,0,94.0,2,196,1.76,1.45,0.21,18.12,-0.01,-0.43,0.06,1.23,0.23,-0.23,0.06,20.09,0.26,-0.66,22.43,-0.66,18.15,1.09,18.15,1.09,22.43,1,0.84,1,5,0x0,100,1857.65,1095.32,1769.55,176.2,146.06,1,2,2,1769.554688,1022.286621,1168.345459,1769.554688,1022.286621,1168.345459,1945.753052,1022.06073,1167.60437,-1.0,-1.0,-1.0,-1.0,0,0.0,0.0,1,1,-0.23,1.23,0.21,17.29,0.2,17.17,-0.22,1.18,0.05,0.22,0.22,18.51,0.21,18.26,-0.23,1.24,0.06,0.23,0.127226,0.127226,0.002611,1.551483,1,0.000668,0.0,0,0.0,0.0,0.0,
1692632435500040,2,2,0,92.0,14,196,2.44,3.87,3.48,18.58,-0.02,-0.43,-0.01,-5.03,-0.27,-0.22,-0.01,13.79,-0.24,2.74,28.35,2.66,18.61,5.1,18.59,5.18,28.33,3,0.87,0,8,0x810,100,2174.78,976.51,2095.91,314.22,375.46,1,2,1,2017.666626,867.351257,1122.204956,2095.911377,788.776611,1164.236084,2331.884766,789.329651,1163.388428,-1.0,-1.0,-1.0,-1.0,0,0.0,0.0,1,2,-0.22,-5.07,3.44,18.39,3.44,18.39,-0.22,-5.07,-0.01,-0.27,3.57,19.16,3.49,18.6,-0.22,-5.07,-0.01,-0.27,0.079852,0.079852,0.0,0.0,1,0.008475,0.007477,0,0.0,0.0,0.0,
1692632435500040,2,1,0,63.0,11,125,1.79,1.79,17.13,36.99,-0.32,0.62,0.13,-1.82,0.24,1.03,0.13,16.85,0.27,17.63,41.19,18.18,36.95,19.96,37.18,19.4,41.42,0,0.0,0,24,0x1800,100,2742.09,1070.38,2758.08,196.65,90.52,1,2,1,2643.764648,1025.995117,1107.775024,2758.077148,1025.116699,1115.639282,2840.414795,1025.047363,1114.882812,-1.0,-1.0,-1.0,-1.0,0,0.0,0.0,2,1,1.03,-2.01,16.19,35.1,16.19,35.1,1.03,-2.01,0.13,0.24,19.57,42.79,17.13,36.99,1.03,-2.01,0.13,0.24,0.0,0.0,0.0,0.0,0,-0.147151,-1.17837,0,0.0,0.0,0.0,
1692632435500040,2,1,0,92.0,13,111,1.82,1.64,14.35,46.59,-0.25,-0.24,0.07,-3.64,0.16,0.28,0.07,15.05,0.19,13.89,50.97,13.82,46.61,15.64,46.58,15.72,50.93,0,0.0,0,27,0x800,100,2416.23,1063.76,2400.87,117.32,66.89,1,2,1,2357.574951,1030.595459,1092.013062,2400.870361,1030.312622,1097.201416,2474.894775,1030.202637,1097.035522,-1.0,-1.0,-1.0,-1.0,0,0.0,0.0,1,0,0.28,-3.8,12.12,39.52,12.12,39.52,0.28,-3.8,0.07,0.16,14.39,47.26,14.35,46.58,0.28,-3.8,0.07,0.16,0.0,0.0,0.0,0.0,1,0.017715,-0.00783,0,0.0,0.0,0.0,
1692632435500040,2,1,0,99.0,1,196,1.72,1.37,-2.52,65.61,-0.02,-1.06,-0.03,5.16,0.48,-0.32,-0.03,24.05,0.52,-3.33,65.53,-1.62,65.57,-1.72,69.82,-3.44,69.78,2,0.0,0,10,0x0,100,1762.5,1053.61,1788.1,51.21,40.63,1,2,2,1736.889526,1033.368164,1074.063232,1788.102905,1033.291504,1073.919678,1788.102905,1033.291504,1073.919678,-1.0,-1.0,-1.0,-1.0,0,0.0,0.0,1,0,-0.32,5.19,-2.43,63.39,-2.43,63.39,-0.32,5.19,-0.03,0.48,-2.55,66.6,-2.52,65.61,-0.32,5.19,-0.03,0.48,0.0,0.0,0.0,0.0,0,-0.02432,-0.02515,0,0.0,0.0,0.0,
1692632435500040,2,2,0,99.0,3,196,2.5,2.19,1.13,94.43,1.6,-1.54,0.0,0.25,0.75,-0.49,0.0,19.1,0.78,-0.27,103.1,0.02,94.47,2.52,94.55,2.23,103.18,0,0.0,0,11,0x2110,100,1859.64,1005.45,1836.52,57.35,45.53,1,2,1,1830.961792,986.890747,1028.686279,1836.519653,982.685425,1028.217163,1888.309082,982.704285,1028.149292,-1.0,-1.0,-1.0,-1.0,0,0.0,0.0,1,0,-0.49,0.24,35.45,4643.41,37.19,4635.67,-0.6,-1.89,-0.04,0.79,1.09,95.66,1.13,94.43,-0.49,0.24,0.0,0.75,0.0,0.0,0.0,0.0,1,-0.006144,-0.033667,0,0.0,0.0,0.0,
1692632435500040,2,1,0,99.0,6,42,1.95,1.67,11.05,153.25,-0.4,-2.35,-0.04,-3.03,-0.37,-0.64,-0.04,15.71,-0.34,10.15,153.33,12.09,153.21,12.37,157.47,10.43,157.6,0,0.0,0,42,0x1800,100,1979.18,1045.05,1966.66,25.05,21.46,1,2,2,1966.659912,1034.319824,1055.7771,1966.659912,1034.319824,1055.7771,1991.708252,1034.281982,1055.746094,-1.0,-1.0,-1.0,-1.0,0,0.0,0.0,1,2,-0.64,-3.15,8.55,117.46,8.55,117.46,-0.64,-3.15,-0.04,-0.37,11.6,160.04,11.05,153.25,-0.64,-3.15,-0.04,-0.37,0.0,0.0,0.0,0.0,1,0.056303,0.007727,0,0.0,0.0,0.0,
1692632435500040,2,1,2,99.0,8,19,1.59,1.45,13.34,158.93,-0.21,-1.87,-0.0,-41.51,-0.03,-0.1,-0.0,-22.8,0.0,12.55,159.02,14.13,158.9,14.47,163.16,12.89,163.29,0,0.0,0,44,0x2801,100,2001.64,1043.58,1991.8,19.68,17.98,1,2,2,1991.796387,1034.588989,1052.568481,1991.796387,1034.588989,1052.568481,2011.475342,1034.559448,1052.545654,-1.0,-1.0,-1.0,-1.0,0,0.0,0.0,4,2,-0.1,-41.66,13.16,154.24,13.34,158.93,-0.1,-41.66,-0.0,-0.03,12.71,148.88,13.34,158.93,-0.1,-41.66,-0.0,-0.03,0.0,0.0,0.0,0.0,0,0.07802,0.07802,0,0.0,0.0,0.0,
1692632435500040,2,1,0,99.0,4,33,1.62,1.45,10.19,182.59,-0.26,-2.4,-0.0,-7.41,-0.0,-0.36,-0.0,11.33,0.03,9.38,182.64,11.0,182.56,11.22,186.83,9.6,186.91,0,0.0,0,43,0x800,0,1946.45,1042.99,1937.71,17.48,15.69,1,0,0,1937.707886,1035.139771,1050.834106,1937.707886,1035.139771,1050.834106,1955.186279,1035.113403,1050.809204,-1.0,-1.0,-1.0,-1.0,0,0.0,0.0,1,2,-0.36,-7.53,8.54,159.61,8.54,159.61,-0.36,-7.53,-0.0,-0.0,10.22,191.34,10.19,182.59,-0.36,-7.53,-0.0,-0.0,0.0,0.0,0.0,0.0,0,-3.090628,0.003183,0,0.0,0.0,0.0,
1692632435500040,2,8,2,99.0,7,42,2.0,2.0,13.16,213.06,-0.63,-3.14,-0.01,-26.29,-0.11,-0.76,-0.01,-7.58,-0.07,12.21,218.7,12.17,213.1,14.17,213.09,14.21,218.69,0,0.0,0,41,0x3C11,100,1957.19,1042.48,1949.21,21.11,18.57,1,2,1,1946.629272,1033.209229,1051.313599,1949.207886,1033.193726,1051.768555,1967.742188,1033.165649,1051.734619,-1.0,-1.0,-1.0,-1.0,0,0.0,0.0,4,2,-0.76,-26.44,9.04,144.92,13.16,213.06,-0.76,-26.44,-0.01,-0.11,9.63,154.57,13.16,213.06,-0.76,-26.44,-0.01,-0.11,0.0,0.0,0.0,0.0,0,0.00564,0.00564,0,0.0,0.0,0.0,
1692632436000054,2,1,0,90.0,5,63,0.66,1.37,7.67,6.0,-0.01,-0.0,0.0,0.0,0.0,0.0,0.0,18.91,0.19,7.34,6.02,8.0,5.99,8.0,6.0,7.34,6.03,0,0.0,0,40,0xA04,0,3730.5,1192.57,3649.89,165.5,339.33,1,1,1,3647.746582,1022.918335,1361.828979,3649.887451,1022.903931,1362.233521,3813.244629,1022.654541,1361.980835,-1.0,-1.0,-1.0,-1.0,0,0.0,0.0,3,-1,0.0,0.0,7.66,6.0,7.66,6.0,0.0,0.0,0.0,0.0,8.1,6.44,8.1,6.44,0.0,0.0,0.0,0.0,0.997527,0.997527,0.0,0.0,0,-3.141593,0.0,0,0.0,0.0,0.0,
1692632436000054,2,1,0,96.0,9,179,1.74,1.75,9.2,16.55,-0.05,-0.29,0.07,0.57,0.32,-0.29,0.07,19.48,0.51,9.21,20.7,9.28,16.54,11.02,16.57,10.95,20.73,0,0.0,0,17,0x800,0,2825.82,1087.05,2829.07,366.86,187.3,1,2,1,2642.394531,1000.909302,1154.160034,2829.06543,993.395813,1180.699585,3009.254883,993.328186,1179.649048,-1.0,-1.0,-1.0,-1.0,0,0.0,0.0,1,1,-0.29,0.57,8.98,16.02,8.96,16.03,-0.3,0.34,0.02,0.03,9.46,16.97,9.54,17.28,-0.26,0.89,0.14,0.74,0.588126,0.588126,0.0,0.0,1,-0.016552,-0.011468,0,0.0,0.0,0.0,
1692632436000054,2,2,0,91.0,14,211,2.33,4.16,3.35,16.71,-0.12,-0.15,0.0,-4.65,-0.07,-0.14,0.0,14.26,0.12,2.68,26.02,2.78,16.73,5.1,16.75,5.01,26.05,3,0.84,0,8,0x810,100,2204.71,966.64,2134.81,352.99,444.89,1,2,1,2028.217407,840.387085,1137.720337,2134.812256,744.191406,1189.083496,2381.202881,745.629211,1187.729248,-1.0,-1.0,-1.0,-1.0,0,0.0,0.0,1,2,-0.14,-4.65,3.16,15.25,3.18,15.71,-0.15,-5.92,0.0,-0.13,3.56,17.39,3.41,17.06,-0.14,-4.2,0.0,-0.05,0.261025,0.261025,0.0,0.0,1,-0.010741,0.002827,0,0.0,0.0,0.0,
1692632436000054,2,1,0,95.0,2,211,1.77,1.48,0.01,19.37,-0.02,-0.26,0.05,0.84,-0.14,-0.25,0.05,19.75,0.05,-0.87,23.68,-0.87,19.4,0.9,19.4,0.9,23.68,1,0.0,1,5,0x0,100,1837.29,1092.29,1753.74,167.11,139.61,1,2,2,1753.737061,1022.487854,1162.098267,1753.737061,1022.487854,1162.098267,1920.845703,1022.272888,1161.416504,-1.0,-1.0,-1.0,-1.0,0,0.0,0.0,1,1,-0.25,0.84,0.01,18.31,0.01,18.06,-0.24,0.79,0.04,-0.13,0.01,19.62,0.01,19.5,-0.26,0.85,0.05,-0.14,0.092759,0.092759,0.002406,1.518721,1,0.000523,0.0,0,0.0,0.0,0.0,
1692632436000054,2,1,0,93.0,13,126,1.88,1.66,14.28,45.35,-0.19,0.09,0.02,-3.35,0.08,0.1,0.02,15.56,0.27,13.99,49.85,13.9,45.37,15.78,45.33,15.87,49.81,0,0.0,0,27,0x800,100,2434.95,1062.46,2419.24,125.02,69.58,1,2,1,2372.437988,1028.270996,1091.869995,2419.237549,1027.666504,1097.24646,2497.456787,1027.551392,1097.074585,-1.0,-1.0,-1.0,-1.0,0,0.0,0.0,1,0,0.1,-3.35,12.63,39.93,12.63,39.93,0.1,-3.35,0.02,0.08,14.16,45.0,14.24,45.35,0.1,-3.35,0.02,0.08,0.0,0.0,0.0,0.0,0,-0.012309,0.019373,0,0.0,0.0,0.0,
1692632436000054,2,1,0,88.0,1,211,1.68,1.45,-2.76,66.33,-0.06,-0.31,-0.01,3.73,-0.04,-0.28,-0.01,22.64,0.15,-3.78,70.63,-3.65,66.36,-1.97,66.42,-2.1,70.68,2,0.0,0,10,0x0,100,1753.53,1054.2,1778.23,49.4,42.45,1,2,2,1728.83606,1033.048462,1075.572266,1778.232544,1032.97583,1075.425293,1778.232544,1032.97583,1075.425293,-1.0,-1.0,-1.0,-1.0,0,0.0,0.0,1,0,-0.28,3.73,-2.7,62.37,-2.7,62.37,-0.28,3.73,-0.01,-0.04,-2.75,63.56,-2.76,66.32,-0.28,3.73,-0.01,-0.04,0.0,0.0,0.0,0.0,0,-0.030973,-0.030582,0,0.0,0.0,0.0,
1692632436000054,2,2,0,99.0,3,211,2.5,1.88,0.63,94.61,1.72,-0.62,-0.02,0.45,0.56,-0.59,-0.02,19.36,0.75,-0.61,104.66,-0.61,94.66,1.89,94.66,1.89,104.66,0,0.0,0,11,0x3110,100,1849.28,1007.08,1823.39,51.79,38.93,1,2,2,1823.390015,987.612854,1026.543945,1823.390015,987.612854,1026.543945,1875.17688,987.582214,1026.472778,-1.0,-1.0,-1.0,-1.0,0,0.0,0.0,1,0,-0.59,0.45,35.45,4643.41,36.89,4634.84,-0.62,-1.5,-0.04,0.79,0.61,90.75,0.61,94.62,-0.59,0.45,-0.02,0.56,0.0,0.0,0.0,0.0,1,-0.002818,0.0,0,0.0,0.0,0.0,
1692632436000054,2,1,2,99.0,10,18,1.63,1.99,4.19,109.84,-0.64,-0.39,-0.02,-28.89,-0.19,-0.35,-0.02,-9.98,-0.0,3.78,114.13,3.65,109.86,5.27,109.81,5.41,114.08,0,0.0,0,45,0x801,100,1915.88,1052.06,1901.39,29.15,35.68,1,2,2,1901.301147,1034.235596,1068.604614,1901.386353,1034.218994,1069.90271,1930.453247,1034.174438,1069.85376,-1.0,-1.0,-1.0,-1.0,0,0.0,0.0,1,2,-0.35,-28.89,2.82,72.57,2.82,72.57,-0.35,-28.89,-0.02,-0.19,4.09,105.93,4.19,109.84,-0.35,-28.89,-0.02,-0.19,0.0,0.0,0.0,0.0,0,0.031472,0.02872,0,0.0,0.0,0.0,
1692632436000054,2,1,0,94.0,8,34,1.79,1.45,12.08,131.3,-0.2,1.08,0.06,1.76,-0.12,1.13,0.06,20.66,0.06,11.95,135.57,12.14,131.3,13.93,131.38,13.74,135.65,0,0.0,0,44,0x1C00,100,2027.02,1046.39,2017.95,34.94,21.71,1,0,1,2009.553711,1035.516113,1056.558838,2017.94751,1035.535645,1057.250122,2044.492065,1035.493652,1057.183594,-1.0,-1.0,-1.0,-1.0,0,0.0,0.0,2,2,1.13,1.75,10.82,117.0,10.82,117.0,1.13,1.75,0.06,-0.12,10.88,117.73,12.08,131.3,1.13,1.75,0.06,-0.12,0.0,0.0,0.0,0.0,0,-0.003412,-0.02951,0,0.0,0.0,0.0,
1692632436000054,2,1,0,99.0,6,57,1.97,1.72,10.32,147.62,-0.37,-0.78,-0.05,-6.01,-0.66,-0.73,-0.05,12.9,-0.47,9.02,147.71,10.98,147.59,11.24,151.86,9.28,151.98,0,0.0,0,42,0x1800,100,1969.65,1045.76,1956.51,26.28,22.92,1,2,2,1956.512207,1034.305664,1057.22229,1956.512207,1034.305664,1057.22229,1982.787964,1034.265259,1057.187866,-1.0,-1.0,-1.0,-1.0,0,0.0,0.0,1,2,-0.73,-6.01,7.8,114.79,7.8,114.79,-0.73,-6.01,-0.05,-0.66,9.68,142.8,10.32,147.6,-0.73,-6.01,-0.05,-0.66,0.0,0.0,0.0,0.0,1,0.030213,0.033144,0,0.0,0.0,0.0,
1692632436000054,2,1,0,99.0,11,13,1.46,1.44,11.92,149.79,-0.17,-0.01,0.0,6.76,-0.09,0.04,0.0,25.66,0.1,11.41,153.3,11.25,149.81,12.71,149.75,12.87,153.24,0,0.0,0,46,0x2800,100,1993.12,1044.8,1984.14,20.54,18.9,1,0,1,1982.85022,1035.334839,1053.814941,1984.14209,1035.351074,1054.256104,2003.389404,1035.321533,1054.227539,-1.0,-1.0,-1.0,-1.0,0,0.0,0.0,1,2,0.04,6.75,10.58,132.56,10.58,132.56,0.04,6.75,0.0,-0.09,12.04,151.15,11.92,149.79,0.04,6.75,0.0,-0.09,0.0,0.0,0.0,0.0,0,0.045283,0.036532,0,0.0,0.0,0.0,
1692632436000054,2,1,2,99.0,7,57,1.79,1.45,8.84,154.15,-0.14,-1.1,-0.04,-25.85,-0.27,-1.05,-0.04,-6.95,-0.08,8.2,158.45,8.24,154.18,10.03,154.2,9.99,158.47,0,0.0,0,41,0x1C01,100,1951.36,1044.11,1941.64,26.23,18.56,1,2,1,1938.244385,1034.827148,1052.890625,1941.644897,1034.827881,1053.385254,1964.478638,1034.792603,1053.339111,-1.0,-1.0,-1.0,-1.0,0,0.0,0.0,4,2,-1.05,-25.85,9.38,161.91,8.84,154.15,-1.05,-25.85,-0.04,-0.27,9.38,161.91,8.84,154.15,-1.05,-25.85,-0.04,-0.27,0.0,0.0,0.0,0.0,0,-0.011125,-0.011125,0,0.0,0.0,0.0,
1692632436000054,2,1,0,99.0,4,48,1.62,1.45,9.4,188.8,-0.23,-0.65,-0.03,0.34,0.12,-0.58,-0.03,19.24,0.3,8.6,188.85,10.21,188.77,10.42,193.04,8.81,193.12,0,0.0,0,43,0x1800,100,1934.63,1043.27,1926.17,16.91,15.19,1,0,0,1926.171997,1035.679199,1050.866455,1926.171997,1035.679199,1050.866455,1943.083862,1035.65332,1050.841675,-1.0,-1.0,-1.0,-1.0,0,0.0,0.0,1,2,-0.58,0.33,8.11,163.43,8.11,163.43,-0.58,0.33,-0.03,0.12,9.49,191.59,9.4,188.8,-0.58,0.33,-0.03,0.12,0.0,0.0,0.0,0.0,0,-3.09231,0.045233,0,0.0,0.0,0.0,
1692632436500173,2,1,0,86.0,5,78,0.99,1.17,8.18,6.68,-0.01,0.01,0.0,-0.01,0.0,0.0,0.0,19.02,0.31,7.68,6.7,8.68,6.66,8.68,6.67,7.69,6.7,0,0.0,0,40,0x804,0,3698.97,1205.05,3586.87,228.0,267.36,1,1,1,3584.965576,1071.329468,1338.389771,3586.866211,1071.369263,1338.733887,3812.968262,1071.015991,1338.376831,-1.0,-1.0,-1.0,-1.0,0,0.0,0.0,3,-1,0.0,0.0,8.16,6.66,8.16,6.66,0.0,0.0,0.0,0.0,10.11,8.69,10.11,8.69,0.0,0.0,0.0,0.0,0.991528,0.991528,0.0,0.0,0,-3.141593,0.0,0,0.0,0.0,0.0,
1692632436500173,2,2,0,93.0,14,226,2.54,3.96,3.18,13.9,-0.01,-0.17,-0.01,-4.91,-0.36,-0.19,-0.01,14.11,-0.04,2.32,24.08,2.35,13.93,4.89,13.94,4.86,24.09,3,0.86,0,8,0x810,100,2232.84,955.78,2133.44,435.37,497.94,1,2,1,2015.150757,834.90094,1138.93457,2133.443604,706.813965,1204.753784,2450.520752,708.540161,1203.106689,-1.0,-1.0,-1.0,-1.0,0,0.0,0.0,1,2,-0.19,-4.91,3.12,13.82,3.11,13.56,-0.15,-4.63,0.0,-0.26,3.21,14.31,3.25,14.25,-0.23,-5.2,-0.02,-0.46,0.509742,0.509742,0.0,0.0,1,-0.002629,-0.018024,0,0.0,0.0,0.0,
1692632436500173,2,1,0,94.0,9,194,1.73,1.73,9.38,17.08,-0.08,0.03,0.14,0.81,0.28,0.01,0.14,19.84,0.59,9.37,21.21,9.44,17.08,11.17,17.11,11.1,21.24,0,0.0,0,17,0x800,0,2814.79,1090.64,2817.45,353.47,179.79,1,2,1,2638.061035,1007.03479,1155.06311,2817.453857,1000.742004,1180.533813,2991.526367,1000.642456,1179.520264,-1.0,-1.0,-1.0,-1.0,0,0.0,0.0,1,1,0.01,0.82,8.99,16.25,8.97,16.25,-0.15,0.3,0.05,-0.1,9.77,17.8,9.77,17.87,0.15,1.31,0.22,0.64,0.485016,0.485016,0.0,0.0,1,-0.01673,-0.020541,0,0.0,0.0,0.0,
1692632436500173,2,1,0,95.0,2,226,1.79,1.48,-0.17,20.4,-0.03,-0.25,0.04,0.56,-0.43,-0.29,0.04,19.58,-0.12,-1.07,24.71,-1.07,20.44,0.72,20.44,0.72,24.71,1,0.0,1,5,0x0,100,1820.49,1091.38,1901.11,161.23,132.71,1,2,2,1739.87915,1025.23877,1158.376587,1901.110474,1025.022705,1157.730957,1901.110474,1025.022705,1157.730957,-1.0,-1.0,-1.0,-1.0,0,0.0,0.0,1,1,-0.29,0.56,-0.16,19.02,-0.16,18.94,-0.27,0.51,0.03,-0.42,-0.17,20.42,-0.17,20.5,-0.29,0.56,0.04,-0.43,0.06654,0.06654,0.001167,0.773633,1,0.000744,0.0,0,0.0,0.0,0.0,
1692632436500173,2,1,0,93.0,13,141,1.74,1.65,14.33,42.98,-0.24,0.27,0.04,-3.9,-0.15,0.2,0.04,15.14,0.16,14.03,47.02,13.89,42.99,15.63,42.94,15.76,46.96,0,0.0,0,27,0x800,100,2465.23,1068.14,2449.25,120.96,72.62,1,2,1,2404.746338,1032.195801,1098.886719,2449.253418,1031.832642,1104.453857,2525.706787,1031.713623,1104.317993,-1.0,-1.0,-1.0,-1.0,0,0.0,0.0,1,1,0.2,-3.88,12.34,36.65,12.34,36.65,0.2,-3.88,0.04,-0.15,14.49,43.36,14.33,42.98,0.2,-3.88,0.04,-0.15,0.0,0.0,0.0,0.0,0,0.034068,0.040012,0,0.0,0.0,0.0,
1692632436500173,2,1,0,99.0,1,226,1.68,1.41,-3.13,66.49,-0.04,-0.38,-0.06,2.29,-0.47,-0.49,-0.06,21.31,-0.16,-3.91,66.39,-2.23,66.45,-2.38,70.71,-4.06,70.65,2,0.0,0,10,0x800,100,1745.94,1055.94,1770.64,49.4,41.35,1,2,2,1721.239014,1035.338135,1076.767456,1770.637451,1035.262939,1076.615112,1770.637451,1035.262939,1076.615112,-1.0,-1.0,-1.0,-1.0,0,0.0,0.0,1,0,-0.49,2.29,-3.04,63.19,-3.04,63.19,-0.49,2.29,-0.06,-0.47,-3.14,65.43,-3.13,66.49,-0.49,2.29,-0.06,-0.47,0.0,0.0,0.0,0.0,0,-0.03564,-0.036198,0,0.0,0.0,0.0,
1692632436500173,2,2,0,88.0,3,226,2.5,2.08,0.42,91.55,1.7,-0.31,0.01,-1.72,-0.07,-0.45,0.01,17.3,0.24,-0.83,101.59,-0.83,91.6,1.67,91.6,1.67,101.59,0,0.0,0,11,0x2110,100,1845.13,1006.09,1818.38,53.49,44.5,1,2,2,1818.379761,983.843445,1028.342529,1818.379761,983.843445,1028.342529,1871.873657,983.815857,1028.267212,-1.0,-1.0,-1.0,-1.0,0,0.0,0.0,1,0,-0.45,-1.72,35.45,4643.41,36.58,4634.19,-0.64,-1.11,-0.04,0.79,0.42,92.68,0.43,91.54,-0.45,-1.72,0.01,-0.07,0.0,0.0,0.0,0.0,1,-0.000712,0.0,0,0.0,0.0,0.0,
1692632436500173,2,1,1,99.0,10,33,1.95,1.85,3.95,104.61,-0.52,-0.18,-0.01,-17.83,-0.18,-0.35,-0.01,1.19,0.13,2.91,108.92,2.79,104.65,4.75,104.6,4.86,108.87,0,0.0,0,45,0x800,100,1906.93,1053.6,1888.61,36.63,34.79,1,2,2,1888.614502,1036.203491,1070.991455,1888.614502,1036.203491,1070.991455,1925.248901,1036.145996,1070.925903,-1.0,-1.0,-1.0,-1.0,0,0.0,0.0,1,2,-0.35,-17.83,2.7,73.77,2.7,73.77,-0.35,-17.83,-0.01,-0.18,3.95,108.71,3.95,104.61,-0.35,-17.83,-0.01,-0.18,0.0,0.0,0.0,0.0,0,0.027363,0.026964,0,0.0,0.0,0.0,
1692632436500173,2,1,1,99.0,8,49,1.71,1.45,10.11,108.64,0.06,-0.36,-0.08,-16.05,-0.5,-0.53,-0.08,2.99,-0.19,9.61,112.75,9.54,108.67,11.25,108.64,11.32,112.72,0,0.0,0,44,0x1C00,100,2021.28,1045.95,2008.38,35.78,26.08,1,2,1,2003.392578,1033.032471,1058.183472,2008.376953,1032.910645,1058.988159,2039.168457,1032.863525,1058.931396,-1.0,-1.0,-1.0,-1.0,0,0.0,0.0,1,2,-0.53,-16.03,10.56,113.96,10.56,113.96,-0.53,-16.03,-0.08,-0.5,10.11,109.03,10.11,108.64,-0.53,-16.03,-0.08,-0.5,0.0,0.0,0.0,0.0,0,0.015985,0.042067,0,0.0,0.0,0.0,
1692632436500173,2,1,0,99.0,6,72,1.83,1.53,9.52,142.28,-0.28,-0.69,-0.05,-7.36,-0.83,-0.92,-0.05,11.68,-0.51,8.22,142.36,10.05,142.26,10.29,146.53,8.46,146.63,0,0.0,0,42,0x1800,100,1962.58,1047.84,1949.89,25.39,21.13,1,2,2,1949.888794,1037.281494,1058.406738,1949.888794,1037.281494,1058.406738,1975.278564,1037.241821,1058.371704,-1.0,-1.0,-1.0,-1.0,0,0.0,0.0,1,2,-0.92,-7.34,7.54,117.15,7.54,117.15,-0.92,-7.34,-0.05,-0.83,9.61,149.81,9.52,142.27,-0.92,-7.34,-0.05,-0.83,0.0,0.0,0.0,0.0,1,0.03237,0.023873,0,0.0,0.0,0.0,
1692632436500173,2,1,0,99.0,0,28,1.79,1.45,11.79,154.04,-0.16,-0.02,-0.02,-4.8,-0.28,-0.26,-0.02,14.23,0.03,11.22,158.34,11.11,154.07,12.9,154.02,13.01,158.29,0,0.0,0,46,0x2C00,100,1988.57,1045.86,1978.3,25.21,18.56,1,2,1,1975.966919,1036.571045,1054.634399,1978.302856,1036.578247,1055.135986,2001.180054,1036.542236,1055.09729,-1.0,-1.0,-1.0,-1.0,0,0.0,0.0,4,2,-0.26,-4.79,10.05,130.55,11.79,154.04,-0.26,-4.79,-0.02,-0.28,11.63,151.33,11.79,154.04,-0.26,-4.79,-0.02,-0.28,0.0,0.0,0.0,0.0,0,0.027265,0.027265,1,0.0,0.0,0.0,
1692632436500173,2,1,1,99.0,7,72,1.76,1.43,8.7,157.0,-0.12,-0.52,-0.01,-16.09,1.04,-0.76,-0.01,2.94,1.35,7.81,161.31,7.69,157.04,9.45,156.99,9.57,161.26,0,0.0,0,41,0x3C00,100,1943.34,1045.41,1932.8,23.13,17.92,1,2,2,1931.771362,1036.451294,1053.898315,1932.796509,1036.4552,1054.371094,1954.902466,1036.420532,1054.334106,-1.0,-1.0,-1.0,-1.0,0,0.0,0.0,1,2,-0.76,-16.08,7.78,144.03,7.78,144.03,-0.76,-16.08,-0.01,1.04,8.61,159.76,8.7,156.99,-0.76,-16.08,-0.01,1.04,0.0,0.0,0.0,0.0,0,0.028737,0.004714,0,0.0,0.0,0.0,
1692632436500173,2,1,0,96.0,4,63,1.62,1.45,9.24,195.23,-0.28,-0.16,-0.01,4.85,0.52,-0.46,-0.01,23.88,0.83,8.44,195.28,10.05,195.2,10.26,199.47,8.65,199.55,0,0.0,0,43,0x800,0,1929.81,1045.18,1937.99,16.36,14.7,1,0,0,1921.631226,1037.861084,1052.555176,1937.993042,1037.835449,1052.53064,1937.993042,1037.835449,1052.53064,-1.0,-1.0,-1.0,-1.0,0,0.0,0.0,1,2,-0.46,4.86,7.61,165.89,7.61,165.89,-0.46,4.86,-0.01,0.52,9.25,201.9,9.24,195.23,-0.46,4.86,-0.01,0.52,0.0,0.0,0.0,0.0,0,-3.092553,-0.001418,0,0.0,0.0,0.0,
1692632437000079,2,1,0,88.0,5,93,1.11,1.16,8.3,6.85,-0.02,0.05,0.0,-0.07,0.0,0.0,0.0,19.05,0.16,7.75,6.87,8.85,6.82,8.85,6.83,7.75,6.88,0,0.0,0,40,0x804,0,3688.94,1202.68,3566.3,248.96,258.89,1,1,1,3564.460449,1073.19165,1331.795166,3566.300781,1073.233887,1332.126465,3813.416016,1072.852783,1331.741577,-1.0,-1.0,-1.0,-1.0,0,0.0,0.0,3,-1,0.0,0.0,8.27,6.82,8.27,6.82,0.0,0.0,0.0,0.0,10.39,9.03,10.39,9.03,0.0,0.0,0.0,0.0,0.986537,0.986537,0.0,0.0,0,-3.141593,0.0,0,0.0,0.0,0.0,
1692632437000079,2,2,0,91.0,14,241,2.54,3.82,3.19,12.33,0.02,-0.05,-0.01,-4.02,-0.12,-0.15,-0.01,15.06,0.03,2.52,22.5,2.45,12.36,4.99,12.34,5.06,22.49,3,0.88,0,8,0x810,100,2288.1,952.02,2180.89,490.29,532.38,1,2,1,2042.953979,830.364197,1142.101318,2180.888916,685.827698,1218.206421,2533.247314,687.333923,1216.574341,-1.0,-1.0,-1.0,-1.0,0,0.0,0.0,1,2,-0.15,-3.99,3.27,12.56,3.24,12.56,-0.05,-3.35,0.01,-0.05,3.03,11.52,3.1,11.87,-0.36,-5.32,-0.04,-0.28,0.675833,0.675833,0.0,0.0,1,0.006621,0.022866,0,0.0,0.0,0.0,
1692632437000079,2,1,0,94.0,9,209,1.76,1.72,9.31,17.09,-0.11,0.01,0.09,0.34,0.31,-0.13,0.09,19.47,0.46,9.29,21.29,9.41,17.08,11.17,17.13,11.05,21.34,0,0.0,0,17,0x800,0,2809.34,1093.21,2814.12,361.53,178.94,1,2,1,2628.571289,1009.407715,1156.275391,2814.123047,1003.746216,1182.683838,2990.104004,1003.661011,1181.484863,-1.0,-1.0,-1.0,-1.0,0,0.0,0.0,1,1,-0.13,0.42,8.75,15.86,8.85,16.21,-0.31,-0.25,0.0,-0.07,9.6,17.58,9.71,17.88,0.03,1.02,0.17,0.65,0.472934,0.472934,0.0,0.0,1,-0.028334,-0.041042,0,0.0,0.0,0.0,
1692632437000079,2,1,0,95.0,2,241,1.77,1.48,-0.25,20.89,-0.08,-0.1,0.04,0.08,-0.47,-0.27,0.04,19.13,-0.32,-1.13,25.2,-1.13,20.92,0.64,20.92,0.64,25.2,1,0.0,1,5,0x0,100,1814.56,1094.21,1892.48,155.84,129.81,1,2,2,1736.638794,1029.523926,1159.737305,1892.478516,1029.301758,1159.109009,1892.478516,1029.301758,1159.109009,-1.0,-1.0,-1.0,-1.0,0,0.0,0.0,1,1,-0.27,0.08,-0.22,18.83,-0.23,19.02,-0.24,0.02,0.03,-0.48,-0.25,21.19,-0.25,21.0,-0.27,0.08,0.04,-0.47,0.057079,0.057079,7.2e-05,0.048444,1,0.002071,0.0,0,0.0,0.0,0.0,
1692632437000079,2,1,0,93.0,11,13,1.16,1.45,14.21,21.62,-0.08,-0.04,-0.01,-6.54,0.16,-0.22,-0.01,12.63,0.31,13.71,22.18,14.72,21.6,16.84,25.31,15.84,25.88,0,0.0,0,49,0x800,100,3009.95,1089.16,2955.64,108.63,118.35,1,2,2,2955.638428,1029.981079,1148.331909,2955.638428,1029.981079,1148.331909,3064.269043,1029.733032,1150.721436,-1.0,-1.0,-1.0,-1.0,0,0.0,0.0,1,2,-0.22,-6.42,12.96,19.79,12.96,19.79,-0.22,-6.42,-0.01,0.16,14.06,21.62,14.26,21.68,-0.22,-6.42,-0.01,0.16,0.035137,0.035137,0.0,0.0,0,0.520571,0.520571,0,0.0,0.0,0.0,
1692632437000079,2,1,0,91.0,13,156,1.9,1.68,13.77,38.66,-0.34,-0.29,-0.13,-6.69,-0.66,-0.6,-0.13,12.47,-0.51,13.17,42.9,13.0,38.69,14.9,38.61,15.07,42.82,0,0.0,0,27,0x1800,100,2491.28,1074.76,2470.6,144.52,81.82,1,2,1,2419.024414,1033.975586,1108.151489,2470.601807,1033.850342,1115.666504,2563.541016,1033.706543,1115.526489,-1.0,-1.0,-1.0,-1.0,0,0.0,0.0,1,1,-0.6,-6.58,10.86,29.93,10.86,29.93,-0.6,-6.58,-0.13,-0.66,13.7,38.26,13.77,38.66,-0.6,-6.58,-0.13,-0.66,0.0,0.0,0.0,0.0,0,0.041091,0.040014,0,0.0,0.0,0.0,
1692632437000079,2,1,5,80.0,12,5,0.74,1.44,1.03,43.0,0.01,0.34,0.0,1.18,0.13,-0.0,0.0,20.24,0.28,0.7,47.29,0.64,43.02,1.38,43.01,1.45,47.28,0,0.0,0,50,0x0,100,1881.34,1061.73,1864.81,33.05,64.08,1,2,2,1864.810181,1029.691895,1093.776245,1864.810181,1029.691895,1093.776245,1897.864624,1029.643188,1093.700439,-1.0,-1.0,-1.0,-1.0,0,0.0,0.0,1,0,-0.0,1.19,1.01,42.64,1.01,42.64,-0.0,1.19,0.0,0.13,1.03,43.43,1.03,43.0,-0.0,1.19,0.0,0.13,0.0,0.0,0.0,0.0,0,0.014521,0.014521,0,0.0,0.0,0.0,
1692632437000079,2,1,0,99.0,1,241,1.68,1.4,-3.2,65.98,-0.2,0.0,-0.06,0.9,-0.57,-0.53,-0.06,19.93,-0.42,-3.83,65.88,-2.16,65.94,-2.32,70.2,-3.99,70.14,2,0.0,0,10,0x1800,100,1747.39,1059.72,1772.28,49.77,41.56,1,2,2,1722.500977,1039.020996,1080.659546,1772.275146,1038.937256,1080.496216,1772.275146,1038.937256,1080.496216,-1.0,-1.0,-1.0,-1.0,0,0.0,0.0,1,0,-0.53,0.88,-2.72,55.99,-2.72,55.99,-0.53,0.88,-0.06,-0.57,-3.15,65.11,-3.2,65.98,-0.53,0.88,-0.06,-0.57,0.0,0.0,0.0,0.0,0,-0.037117,-0.037686,0,0.0,0.0,0.0,
1692632437000079,2,2,0,99.0,3,241,2.5,1.77,0.38,88.07,1.57,0.18,-0.01,-3.7,-0.33,-0.53,-0.01,15.36,-0.17,-0.87,98.11,-0.87,88.12,1.63,88.12,1.63,98.11,0,0.0,0,11,0x3110,100,1844.64,1010.29,1816.86,55.57,39.36,1,2,2,1816.859985,990.614685,1029.973633,1816.859985,990.614685,1029.973633,1872.42749,990.578369,1029.893555,-1.0,-1.0,-1.0,-1.0,0,0.0,0.0,1,0,-0.53,-3.69,35.45,4643.41,36.26,4633.74,-0.65,-0.72,-0.04,0.79,0.36,82.81,0.41,88.07,-0.53,-3.69,-0.01,-0.33,0.0,0.0,0.0,0.0,1,0.001009,0.0,0,0.0,0.0,0.0,
1692632437000079,2,1,0,99.0,10,48,2.02,1.89,3.91,105.07,-0.83,0.32,-0.03,-10.2,0.37,-0.52,-0.03,8.88,0.53,2.89,109.38,2.77,105.11,4.79,105.06,4.91,109.33,0,0.0,0,45,0x3800,100,1906.86,1057.74,1888.0,37.71,35.41,1,2,2,1888.004272,1040.039062,1075.446655,1888.004272,1040.039062,1075.446655,1925.71814,1039.979614,1075.378906,-1.0,-1.0,-1.0,-1.0,0,0.0,0.0,1,2,-0.52,-10.17,2.3,63.25,2.3,63.25,-0.52,-10.17,-0.03,0.37,3.84,106.8,3.91,105.06,-0.52,-10.17,-0.03,0.37,0.0,0.0,0.0,0.0,0,0.027674,0.025853,0,0.0,0.0,0.0,
1692632437000079,2,1,0,99.0,8,64,1.81,1.65,11.79,126.67,-0.4,0.07,-0.12,-13.98,0.01,-0.95,-0.12,5.16,0.16,11.01,131.03,11.02,126.7,12.84,126.7,12.82,131.03,0,0.0,0,44,0x1800,100,2018.32,1048.95,2007.2,33.8,25.65,1,2,1,2001.421753,1036.098267,1060.914307,2007.20105,1036.124023,1061.773682,2035.220459,1036.079956,1061.713989,-1.0,-1.0,-1.0,-1.0,0,0.0,0.0,1,2,-0.95,-13.89,9.03,97.0,9.03,97.0,-0.95,-13.89,-0.12,0.01,11.89,128.29,11.79,126.67,-0.95,-13.89,-0.12,0.01,0.0,0.0,0.0,0.0,1,-0.003367,-0.017151,0,0.0,0.0,0.0,
1692632437000079,2,1,0,99.0,6,87,1.82,1.47,9.26,143.46,-0.53,0.01,-0.08,-4.62,-0.08,-1.14,-0.08,14.5,0.08,8.24,143.53,10.07,143.43,10.31,147.7,8.49,147.8,0,0.0,0,42,0x1800,100,1961.91,1050.56,1949.38,25.05,20.14,1,2,2,1949.382202,1040.490112,1060.631226,1949.382202,1040.490112,1060.631226,1974.428955,1040.452515,1060.597778,-1.0,-1.0,-1.0,-1.0,0,0.0,0.0,1,2,-1.14,-4.55,6.52,101.58,6.52,101.58,-1.14,-4.55,-0.08,-0.08,8.98,140.71,9.26,143.45,-1.14,-4.55,-0.08,-0.08,0.0,0.0,0.0,0.0,1,0.039635,0.056771,0,0.0,0.0,0.0,
1692632437000079,2,1,0,99.0,0,43,1.33,1.38,11.94,151.91,-0.46,1.16,0.01,-2.58,0.08,-0.06,0.01,16.56,0.23,11.08,155.12,11.15,151.94,12.48,151.97,12.42,155.15,0,0.0,0,46,0xC00,100,1987.53,1049.31,1980.8,20.92,17.88,1,2,1,1977.065918,1040.271484,1057.792358,1980.799927,1040.372192,1058.25415,1997.988037,1040.342896,1058.215454,-1.0,-1.0,-1.0,-1.0,0,0.0,0.0,1,2,-0.06,-2.49,8.66,112.28,8.66,112.28,-0.06,-2.49,0.01,0.08,12.28,159.94,11.94,151.9,-0.06,-2.49,0.01,0.08,0.0,0.0,0.0,0.0,0,-0.020103,0.022097,0,0.0,0.0,0.0,
1692632437000079,2,1,0,99.0,7,87,1.77,1.46,8.49,156.68,-0.42,0.23,-0.04,-9.71,2.6,-1.03,-0.04,9.4,2.76,7.83,160.98,7.77,156.71,9.54,156.69,9.6,160.96,0,0.0,0,41,0x3800,100,1944.23,1047.94,1933.96,24.04,18.45,1,2,1,1932.208496,1038.629517,1056.595825,1933.959473,1038.719849,1057.169678,1956.248657,1038.684326,1057.12915,-1.0,-1.0,-1.0,-1.0,0,0.0,0.0,1,2,-1.03,-9.65,6.36,118.1,6.36,118.1,-1.03,-9.65,-0.04,2.6,8.32,155.11,8.49,156.68,-1.03,-9.65,-0.04,2.6,0.0,0.0,0.0,0.0,0,0.015508,0.048157,0,0.0,0.0,0.0,
1692632437000079,2,1,0,95.0,4,78,1.62,1.45,9.14,199.48,-0.35,0.83,-0.05,6.44,0.98,-0.77,-0.05,25.56,1.14,8.34,199.53,9.95,199.45,10.17,203.72,8.56,203.8,0,0.0,0,43,0x1800,0,1926.9,1044.6,1934.85,16.12,14.39,1,0,0,1918.836548,1037.427368,1051.811523,1934.853027,1037.402832,1051.78833,1934.959961,1037.356201,1051.442749,-1.0,-1.0,-1.0,-1.0,0,0.0,0.0,2,2,-0.77,6.51,6.47,140.94,6.47,140.94,-0.77,6.51,-0.05,0.98,8.98,196.38,9.14,199.48,-0.77,6.51,-0.05,0.98,0.0,0.0,0.0,0.0,0,-3.08961,-0.020874,0,0.0,0.0,0.0,
1692632437500244,2,1,0,89.0,5,108,1.24,1.25,8.15,6.75,-0.01,0.07,0.0,-0.09,0.0,0.0,0.0,18.81,-0.44,7.53,6.78,8.77,6.73,8.77,6.74,7.53,6.79,0,0.0,0,40,0x804,0,3675.18,1192.28,3535.96,282.1,282.2,1,1,1,3534.132324,1051.158203,1333.038574,3535.95874,1051.17749,1333.376099,3816.23584,1050.752319,1332.946411,-1.0,-1.0,-1.0,-1.0,0,0.0,0.0,3,-1,0.0,0.0,8.14,6.75,8.14,6.75,0.0,0.0,0.0,0.0,9.46,8.13,9.46,8.13,0.0,0.0,0.0,0.0,0.996271,0.996271,0.0,0.0,0,-3.141593,0.0,0,0.0,0.0,0.0,
1692632437500244,2,2,0,93.0,14,256,2.57,4.08,3.24,10.28,-0.03,0.01,0.01,-4.08,0.4,-0.1,0.01,14.77,-0.04,2.63,20.58,2.66,10.3,5.23,10.31,5.2,20.59,3,0.88,0,8,0x810,100,2378.22,924.51,2272.29,616.63,663.85,1,2,1,2069.906738,793.189636,1154.746704,2272.289062,592.581421,1256.435791,2686.534912,595.887451,1253.79187,-1.0,-1.0,-1.0,-1.0,0,0.0,0.0,1,2,-0.1,-4.04,3.22,9.99,3.24,10.3,-0.1,-4.01,0.01,0.4,3.15,9.71,3.12,9.86,-0.29,-4.91,-0.02,0.4,0.967892,0.967892,0.0,0.0,1,-0.003123,0.004988,0,0.0,0.0,0.0,
1692632437500244,2,1,0,95.0,9,224,1.68,1.68,9.12,16.35,-0.04,-0.14,0.04,-0.31,0.67,-0.31,0.04,18.6,0.23,9.23,20.34,9.2,16.35,10.88,16.34,10.91,20.33,0,0.0,0,17,0x800,0,2833.43,1089.58,2831.77,352.69,181.73,1,2,1,2657.089844,1004.98053,1154.457397,2831.774414,998.710999,1180.442017,3009.777832,998.544983,1179.714478,-1.0,-1.0,-1.0,-1.0,0,0.0,0.0,1,1,-0.31,-0.22,8.96,15.98,9.01,16.11,-0.14,-0.15,0.04,0.51,9.26,16.56,9.24,16.6,-0.48,-0.28,0.03,0.84,0.511848,0.511848,0.0,0.0,0,0.005972,0.03193,0,0.0,0.0,0.0,
1692632437500244,2,1,0,95.0,2,256,1.79,1.49,-0.2,20.46,-0.01,0.03,0.05,-0.22,-0.04,-0.19,0.05,18.6,-0.48,-1.09,24.77,-1.09,20.5,0.71,20.5,0.71,24.77,1,0.0,1,5,0x0,100,1818.86,1087.15,1899.5,161.27,133.38,1,2,2,1738.227295,1020.666748,1154.47583,1899.49585,1020.46521,1153.842651,1899.49585,1020.46521,1153.842651,-1.0,-1.0,-1.0,-1.0,0,0.0,0.0,1,1,-0.19,-0.22,-0.18,19.27,-0.18,19.16,-0.18,-0.17,0.04,0.02,-0.19,20.41,-0.2,20.56,-0.19,-0.22,0.05,-0.04,0.068812,0.068812,-0.000461,-0.304927,1,0.002918,0.0,0,0.0,0.0,0.0,
1692632437500244,2,1,0,93.0,11,28,1.61,1.44,14.1,20.93,-0.05,-0.06,-0.01,-2.74,0.79,-0.28,-0.01,16.22,0.35,13.56,24.74,13.41,20.95,15.02,20.89,15.17,24.68,0,0.0,0,49,0xC00,100,2982.69,1088.93,2988.8,288.66,124.08,1,2,1,2838.364746,1027.88623,1134.5802,2988.802734,1026.889648,1150.973511,3127.023193,1026.679565,1150.759766,-1.0,-1.0,-1.0,-1.0,0,0.0,0.0,1,1,-0.28,-2.59,13.2,19.53,13.2,19.53,-0.28,-2.59,-0.01,0.79,14.12,21.03,14.14,20.99,-0.28,-2.59,-0.01,0.79,0.041387,0.041387,0.0,0.0,0,0.03969,0.040018,0,0.0,0.0,0.0,
1692632437500244,2,1,0,75.0,12,20,0.69,1.45,1.07,38.44,0.09,0.33,0.0,-6.34,0.72,-0.07,0.0,12.48,0.28,0.8,42.73,0.73,38.46,1.42,38.44,1.49,42.72,0,0.0,0,50,0x200,100,1889.33,1059.39,1872.39,34.31,72.01,1,2,2,1872.179077,1024.412476,1089.504883,1872.392578,1023.386536,1095.391968,1906.486328,1023.338806,1095.315796,-1.0,-1.0,-1.0,-1.0,0,0.0,0.0,2,1,-0.07,-6.33,1.23,44.53,1.23,44.53,-0.07,-6.33,0.0,0.72,1.25,45.17,1.06,38.44,-0.07,-6.33,0.0,0.72,0.0,0.0,0.0,0.0,0,0.017025,0.043281,0,0.0,0.0,0.0,
1692632437500244,2,1,0,99.0,1,256,1.68,1.37,-3.06,67.39,-0.03,0.18,-0.06,1.63,0.21,-0.52,-0.06,20.41,-0.22,-3.86,71.68,-3.71,67.42,-2.04,67.48,-2.19,71.74,2,0.0,0,10,0x1800,100,1752.97,1053.73,1777.29,48.64,39.58,1,2,2,1728.649902,1034.016113,1073.668213,1777.292969,1033.942505,1073.521729,1777.292969,1033.942505,1073.521729,-1.0,-1.0,-1.0,-1.0,0,0.0,0.0,1,0,-0.52,1.59,-2.93,64.46,-2.93,64.46,-0.52,1.59,-0.06,0.21,-3.1,68.3,-3.06,67.39,-0.52,1.59,-0.06,0.21,0.0,0.0,0.0,0.0,0,-0.035833,-0.034841,0,0.0,0.0,0.0,
1692632437500244,2,2,0,89.0,3,256,2.5,1.88,0.67,83.45,1.71,0.31,-0.01,-5.88,-0.21,-0.57,-0.01,12.94,-0.65,-0.58,93.49,-0.58,83.5,1.92,83.5,1.92,93.49,0,0.0,0,11,0x3110,100,1851.87,1003.16,1822.59,58.56,44.09,1,2,2,1822.587036,981.108765,1025.203125,1822.587036,981.108765,1025.203125,1881.149658,981.081604,1025.12439,-1.0,-1.0,-1.0,-1.0,0,0.0,0.0,1,0,-0.57,-5.87,35.45,4643.41,35.93,4633.48,-0.67,-0.33,-0.04,0.79,0.64,79.47,0.64,83.45,-0.57,-5.87,-0.01,-0.21,0.0,0.0,0.0,0.0,1,0.002021,0.0,0,0.0,0.0,0.0,
1692632437500244,2,1,0,99.0,10,63,2.09,1.95,4.06,104.59,-0.65,0.38,-0.04,-6.78,1.24,-0.72,-0.04,12.08,0.8,3.17,108.9,3.05,104.63,5.14,104.57,5.27,108.84,0,0.0,0,45,0x3800,100,1913.0,1052.86,1893.38,39.24,36.53,1,2,2,1893.376709,1034.599365,1071.128784,1893.376709,1034.599365,1071.128784,1932.617554,1034.539429,1071.061279,-1.0,-1.0,-1.0,-1.0,0,0.0,0.0,1,2,-0.72,-6.74,2.69,68.82,2.69,68.82,-0.72,-6.74,-0.04,1.24,4.0,103.44,4.06,104.59,-0.72,-6.74,-0.04,1.24,0.0,0.0,0.0,0.0,0,0.029566,0.027782,0,0.0,0.0,0.0,
1692632437500244,2,1,0,99.0,8,79,1.49,1.62,12.8,125.43,-0.07,1.09,0.01,-8.89,1.94,-0.22,0.01,10.06,1.5,11.26,129.06,11.34,125.49,12.84,125.53,12.75,129.1,0,0.0,0,44,0x800,100,2022.33,1042.98,2013.74,29.33,25.39,1,2,1,2007.665649,1030.395264,1055.09668,2013.736084,1030.28894,1055.679932,2036.993164,1030.256104,1055.628418,-1.0,-1.0,-1.0,-1.0,0,0.0,0.0,1,2,-0.22,-8.75,11.34,119.59,11.34,119.59,-0.22,-8.75,0.01,1.94,13.03,137.61,12.8,125.4,-0.22,-8.75,0.01,1.94,0.0,0.0,0.0,0.0,1,-0.022899,0.023814,0,0.0,0.0,0.0,
1692632437500244,2,1,0,99.0,6,102,1.82,1.43,9.57,142.48,-0.2,0.37,-0.06,-2.8,1.03,-1.12,-0.06,16.11,0.59,8.69,146.87,8.6,142.52,10.42,142.48,10.51,146.84,0,0.0,0,42,0x1800,100,1966.47,1045.22,1955.0,27.37,19.75,1,2,1,1952.787109,1035.30835,1054.484619,1954.996948,1035.345703,1055.099243,1980.156494,1035.307007,1055.055908,-1.0,-1.0,-1.0,-1.0,0,0.0,0.0,1,2,-1.12,-2.7,8.16,123.15,8.16,123.15,-1.12,-2.7,-0.06,1.03,9.57,144.69,9.57,142.48,-1.12,-2.7,-0.06,1.03,0.0,0.0,0.0,0.0,1,0.021623,0.005967,0,0.0,0.0,0.0,
1692632437500244,2,1,0,99.0,0,58,1.53,1.5,11.94,150.5,-0.15,0.88,-0.05,-2.45,0.7,-0.7,-0.05,16.49,0.27,11.37,154.18,11.4,150.53,12.93,150.54,12.89,154.19,0,0.0,0,46,0x1C00,100,1993.41,1043.46,1985.42,23.85,19.64,1,2,1,1981.484741,1033.650635,1052.831421,1985.415283,1033.638428,1053.2771,2005.334473,1033.608154,1053.237061,-1.0,-1.0,-1.0,-1.0,0,0.0,0.0,1,2,-0.7,-2.32,10.79,135.0,10.79,135.0,-0.7,-2.32,-0.05,0.7,11.61,145.43,11.94,150.51,-0.7,-2.32,-0.05,0.7,0.0,0.0,0.0,0.0,0,-0.009625,0.00062,0,0.0,0.0,0.0,
1692632437500244,2,1,0,99.0,7,102,1.75,1.41,9.12,161.39,-0.11,0.86,0.03,-1.04,5.12,-0.83,0.03,17.87,4.69,8.47,165.7,8.35,161.43,10.1,161.38,10.22,165.65,0,0.0,0,41,0x3800,100,1948.34,1042.88,1938.22,22.59,17.25,1,2,2,1937.040771,1034.255615,1051.0625,1938.218262,1034.260986,1051.507202,1959.631592,1034.228271,1051.47229,-1.0,-1.0,-1.0,-1.0,0,0.0,0.0,1,2,-0.83,-0.95,8.39,149.12,8.39,149.12,-0.83,-0.95,0.03,5.12,9.33,166.01,9.12,161.39,-0.83,-0.95,0.03,5.12,0.0,0.0,0.0,0.0,0,0.027929,0.017076,0,0.0,0.0,0.0,
1692632437500244,2,1,0,98.0,4,93,1.62,1.45,9.61,197.95,-0.12,1.09,-0.07,3.07,0.6,-0.98,-0.07,21.98,0.16,8.8,198.0,10.42,197.91,10.66,202.18,9.05,202.27,0,0.0,0,43,0x3800,0,1932.29,1041.14,1940.24,16.37,14.49,1,0,0,1924.106812,1033.921021,1048.411865,1940.243652,1033.896484,1048.389404,1940.476929,1033.897705,1048.08728,-1.0,-1.0,-1.0,-1.0,0,0.0,0.0,1,2,-0.98,3.17,9.06,184.76,9.06,184.76,-0.98,3.17,-0.07,0.6,9.85,201.06,9.61,197.95,-0.98,3.17,-0.07,0.6,0.0,0.0,0.0,0.0,0,-3.083903,0.045101,0,0.0,0.0,0.0,
1692632438000177,2,1,0,92.0,5,123,1.26,1.3,7.95,6.55,-0.01,0.03,0.0,-0.04,0.0,0.0,0.0,18.17,-1.34,7.32,6.58,8.59,6.52,8.59,6.53,7.32,6.59,0,0.0,0,40,0x804,0,3673.69,1182.27,3528.75,293.61,301.55,1,1,1,3526.88501,1031.49292,1332.691406,3528.74707,1031.498535,1333.045166,3820.49292,1031.098633,1332.641113,-1.0,-1.0,-1.0,-1.0,0,0.0,0.0,3,-1,0.0,0.0,7.95,6.55,7.95,6.55,0.0,0.0,0.0,0.0,8.84,7.48,8.84,7.48,0.0,0.0,0.0,0.0,0.997527,0.997527,0.0,0.0,0,-3.141593,0.0,0,0.0,0.0,0.0,
1692632438000177,2,2,0,94.0,14,271,2.45,4.09,3.26,8.73,0.0,-0.02,0.02,-3.38,1.38,-0.06,0.02,14.8,0.04,2.74,18.53,2.65,8.75,5.09,8.73,5.19,18.51,3,0.87,0,8,0x810,100,2445.59,893.54,2333.59,682.27,761.45,1,2,1,2104.455811,757.322998,1155.71228,2333.589111,512.819336,1274.268921,2786.728027,515.730713,1271.91687,-1.0,-1.0,-1.0,-1.0,0,0.0,0.0,1,2,-0.06,-3.36,3.25,8.76,3.26,8.73,-0.06,-3.36,0.02,1.38,3.62,9.94,3.36,9.11,0.08,-3.27,0.08,1.58,0.995458,0.995458,0.0,0.0,1,0.009554,-0.029361,0,0.0,0.0,0.0,
1692632438000177,2,1,0,93.0,9,239,1.63,1.68,9.81,17.05,0.01,0.57,0.23,0.97,1.78,0.49,0.23,19.18,0.44,9.74,20.83,9.59,17.06,11.22,17.0,11.38,20.76,0,0.0,0,17,0x800,0,2843.38,1074.16,2833.72,320.11,175.07,1,2,1,2683.320557,993.180664,1139.563721,2833.71582,986.630981,1161.697632,3003.433594,986.397644,1161.464722,-1.0,-1.0,-1.0,-1.0,0,0.0,0.0,1,1,0.49,1.02,10.01,17.46,9.68,16.71,0.65,1.04,0.22,1.61,9.89,17.24,9.91,17.3,0.38,1.0,0.23,1.91,0.421014,0.421014,0.0,0.0,0,0.040117,0.040013,0,0.0,0.0,0.0,
1692632438000177,2,1,0,95.0,2,271,1.78,1.44,-0.09,19.56,0.08,0.03,0.07,-1.05,0.3,-0.06,0.07,17.12,-1.04,-0.97,23.88,-0.97,19.6,0.81,19.6,0.81,23.88,1,0.0,1,5,0x0,100,1828.3,1075.5,1911.63,166.65,134.73,1,2,2,1744.973755,1008.303772,1143.483276,1911.627075,1008.136597,1142.865479,1911.627075,1008.136597,1142.865479,-1.0,-1.0,-1.0,-1.0,0,0.0,0.0,1,1,-0.06,-1.05,-0.09,20.23,-0.09,19.25,-0.07,-0.92,0.06,0.4,-0.08,19.67,-0.09,19.59,-0.06,-1.06,0.07,0.29,0.074109,0.074109,-0.001013,-0.64679,1,0.001778,0.0,0,0.0,0.0,0.0,
1692632438000177,2,1,0,93.0,11,43,1.52,1.46,13.74,19.99,0.01,-0.46,-0.02,-1.91,1.71,-0.55,-0.02,16.32,0.37,13.4,23.55,13.25,20.01,14.78,19.95,14.92,23.49,0,0.0,0,49,0x1800,100,3015.88,1077.91,3023.5,287.88,130.42,1,2,1,2871.943604,1014.616455,1127.148926,3023.502686,1012.702454,1143.12439,3159.824707,1012.513977,1142.947021,-1.0,-1.0,-1.0,-1.0,0,0.0,0.0,1,1,-0.55,-1.85,13.97,20.44,13.97,20.44,-0.55,-1.85,-0.02,1.71,13.63,19.89,13.72,19.96,-0.55,-1.85,-0.02,1.71,0.057841,0.057841,0.0,0.0,0,0.041352,0.040013,0,0.0,0.0,0.0,
1692632438000177,2,1,0,99.0,1,271,1.68,1.43,-2.94,66.33,0.24,-0.17,-0.04,0.3,0.76,-0.47,-0.04,18.46,-0.58,-3.78,70.62,-3.63,66.35,-1.95,66.42,-2.11,70.68,2,0.0,0,10,0x0,100,1754.08,1037.84,1778.77,49.38,41.91,1,2,2,1729.391113,1016.930664,1058.922363,1778.773438,1016.881348,1058.794434,1778.773438,1016.881348,1058.794434,-1.0,-1.0,-1.0,-1.0,0,0.0,0.0,1,0,-0.47,0.29,-3.5,79.9,-3.5,79.9,-0.47,0.29,-0.04,0.76,-2.84,64.35,-2.94,66.33,-0.47,0.29,-0.04,0.76,0.0,0.0,0.0,0.0,0,-0.036116,-0.032513,0,0.0,0.0,0.0,
1692632438000177,2,1,0,99.0,12,16,1.32,1.42,8.56,68.25,0.23,0.35,0.0,-0.81,0.91,0.04,0.0,17.39,-0.44,7.99,71.41,8.07,68.27,9.38,68.3,9.31,71.44,0,0.0,0,54,0x800,100,2077.96,1037.52,2065.31,48.92,40.26,1,2,1,2053.50415,1017.79187,1056.334351,2065.307373,1017.387207,1057.650757,2102.420166,1017.346924,1057.562744,-1.0,-1.0,-1.0,-1.0,0,0.0,0.0,1,0,0.04,-0.77,10.37,83.55,10.37,83.55,0.04,-0.77,0.0,0.91,8.71,69.85,8.56,68.25,0.04,-0.77,0.0,0.91,0.0,0.0,0.0,0.0,0,-0.023421,-0.048172,0,0.0,0.0,0.0,
1692632438000177,2,2,0,90.0,3,271,2.5,1.92,0.77,80.09,1.98,-0.16,0.01,-5.98,0.67,-0.52,0.01,12.19,-0.68,-0.48,90.14,-0.48,80.14,2.02,80.14,2.02,90.14,0,0.0,0,11,0x3110,100,1854.9,987.54,1824.43,60.94,46.69,1,2,2,1824.432251,964.196106,1010.889038,1824.432251,964.196106,1010.889038,1885.376953,964.188538,1010.824463,-1.0,-1.0,-1.0,-1.0,0,0.0,0.0,1,0,-0.52,-5.98,35.45,4643.41,35.6,4633.42,-0.69,0.06,-0.04,0.79,0.74,77.41,0.78,80.09,-0.52,-5.98,0.01,0.67,0.0,0.0,0.0,0.0,1,0.001,0.0,0,0.0,0.0,0.0,
1692632438000177,2,1,0,99.0,10,78,2.2,1.97,3.89,96.66,-0.19,-0.49,-0.05,-10.09,1.18,-0.93,-0.05,8.1,-0.16,2.91,96.68,5.11,96.61,5.23,100.89,3.03,100.95,0,0.0,0,45,0x1800,100,1917.39,1037.55,1895.08,44.62,39.88,1,2,2,1895.076782,1017.612671,1057.493286,1895.076782,1017.612671,1057.493286,1939.697998,1017.553223,1057.424805,-1.0,-1.0,-1.0,-1.0,0,0.0,0.0,1,0,-0.93,-10.07,3.44,83.47,3.44,83.47,-0.93,-10.07,-0.05,1.18,3.88,94.55,3.89,96.67,-0.93,-10.07,-0.05,1.18,0.0,0.0,0.0,0.0,0,0.02983,0.028757,0,0.0,0.0,0.0,
1692632438000177,2,1,0,99.0,8,94,1.85,1.75,11.64,125.79,0.28,-0.98,-0.18,-4.4,3.72,-1.56,-0.18,13.82,2.38,10.66,130.25,10.77,125.83,12.62,125.87,12.52,130.3,0,0.0,0,44,0x1820,100,2015.08,1029.24,2004.29,35.93,27.38,1,2,1,1997.111694,1015.929077,1042.391235,2004.290527,1015.55188,1042.927368,2033.039673,1015.522522,1042.872803,-1.0,-1.0,-1.0,-1.0,0,0.0,0.0,1,2,-1.56,-4.35,14.66,161.43,14.66,161.43,-1.56,-4.35,-0.18,3.72,11.63,127.69,11.64,125.79,-1.56,-4.35,-0.18,3.72,0.0,0.0,0.0,0.0,1,-0.023458,-0.05153,0,0.0,0.0,0.0,
1692632438000177,2,1,0,99.0,6,117,1.75,1.46,9.99,144.75,0.37,-0.11,0.02,0.49,2.54,-0.76,0.02,18.7,1.19,8.93,144.83,10.68,144.72,10.94,148.99,9.19,149.09,0,0.0,0,42,0x1820,100,1969.62,1029.64,1957.69,23.85,19.82,1,2,2,1957.694336,1019.731995,1039.552246,1957.694336,1019.731995,1039.552246,1981.546997,1019.697388,1039.522583,-1.0,-1.0,-1.0,-1.0,0,0.0,0.0,1,2,-0.76,0.53,13.76,203.78,13.76,203.78,-0.76,0.53,0.02,2.54,10.92,161.39,9.99,144.74,-0.76,0.53,0.02,2.54,0.0,0.0,0.0,0.0,1,0.039434,0.022494,0,0.0,0.0,0.0,
1692632438000177,2,1,0,98.0,0,73,1.73,1.46,12.09,151.28,0.46,-0.18,-0.07,-0.38,1.96,-0.87,-0.07,17.84,0.62,11.72,155.44,11.69,151.3,13.42,151.29,13.45,155.43,0,0.0,0,46,0x1820,100,1997.8,1028.32,1988.33,26.09,19.05,1,2,1,1984.757324,1019.000916,1037.548828,1988.332642,1018.791382,1037.839355,2010.848633,1018.763367,1037.804199,-1.0,-1.0,-1.0,-1.0,0,0.0,0.0,1,2,-0.87,-0.33,18.79,235.46,18.79,235.46,-0.87,-0.33,-0.07,1.96,12.02,149.91,12.09,151.29,-0.87,-0.33,-0.07,1.96,0.0,0.0,0.0,0.0,0,0.007993,0.014183,0,0.0,0.0,0.0,
1692632438000177,2,1,0,99.0,7,117,1.77,1.45,9.21,161.83,0.51,-0.2,0.03,1.78,6.02,-0.93,0.03,19.99,4.68,8.65,166.13,8.52,161.86,10.31,161.8,10.44,166.08,0,0.0,0,41,0x3800,0,1950.39,1027.69,1940.01,22.85,17.68,1,0,1,1938.963745,1019.052673,1036.279175,1940.011108,1018.852966,1036.528809,1961.81665,1018.823669,1036.497803,-1.0,-1.0,-1.0,-1.0,0,0.0,0.0,1,2,-0.93,1.82,15.8,279.12,15.8,279.12,-0.93,1.82,0.03,6.02,9.59,168.76,9.21,161.83,-0.93,1.82,0.03,6.02,0.0,0.0,0.0,0.0,0,0.027435,0.027842,0,0.0,0.0,0.0,
1692632438000177,2,1,0,52.0,4,108,1.62,1.45,10.12,197.96,-0.18,0.1,-0.03,2.55,1.27,-0.8,-0.03,20.76,-0.08,9.32,198.02,10.93,197.92,11.19,202.18,9.58,202.28,0,0.0,0,43,0x3800,0,1937.42,1034.43,1945.34,16.43,14.49,1,0,0,1929.208374,1027.211914,1041.696289,1945.340454,1027.189819,1041.676758,1945.639526,1027.177979,1041.361816,-1.0,-1.0,-1.0,-1.0,0,0.0,0.0,2,2,-0.8,2.6,19.53,380.73,19.53,380.73,-0.8,2.6,-0.03,1.27,10.21,198.03,10.12,197.96,-0.8,2.6,-0.03,1.27,0.0,0.0,0.0,0.0,0,-3.079765,0.04762,0,0.0,0.0,0.0,
1692632438500059,2,1,0,91.0,5,138,1.37,1.34,7.47,6.11,-0.01,0.02,0.0,-0.02,0.0,0.0,0.0,17.14,-2.09,6.78,6.14,8.15,6.09,8.15,6.1,6.78,6.15,0,0.0,0,40,0x804,0,3656.29,1180.87,3490.3,335.8,326.63,1,1,1,3488.383057,1017.560547,1343.789917,3490.301025,1017.556458,1344.183716,3824.1875,1017.137024,1343.759888,-1.0,-1.0,-1.0,-1.0,0,0.0,0.0,3,-1,0.0,0.0,7.47,6.11,7.47,6.11,0.0,0.0,0.0,0.0,8.08,6.77,8.08,6.77,0.0,0.0,0.0,0.0,0.997527,0.997527,0.0,0.0,0,-3.141593,0.0,0,0.0,0.0,0.0,
1692632438500059,2,2,0,93.0,14,286,2.49,4.04,3.19,7.25,0.03,-0.08,0.02,-2.42,2.17,-0.09,0.02,14.73,0.07,2.76,17.23,2.58,7.28,5.07,7.23,5.24,17.18,3,0.86,0,8,0x810,100,2529.49,864.95,2398.38,810.35,873.77,1,2,1,2124.320312,734.738037,1155.629517,2398.376709,428.064148,1301.833496,2934.668945,430.882141,1299.476807,-1.0,-1.0,-1.0,-1.0,0,0.0,0.0,1,2,-0.09,-2.41,3.26,7.49,3.19,7.25,-0.09,-2.41,0.02,2.17,3.27,7.52,3.21,7.28,-0.07,-2.54,0.04,2.29,0.997527,0.997527,0.0,0.0,1,0.017937,0.007195,0,0.0,0.0,0.0,
1692632438500059,2,1,0,85.0,9,254,1.73,1.7,10.36,17.64,-0.09,0.79,0.3,1.83,2.6,0.75,0.3,18.99,0.5,9.76,21.59,9.57,17.67,11.31,17.59,11.49,21.51,0,0.0,0,17,0x1800,0,2816.66,1076.37,2801.05,319.18,171.38,1,2,1,2657.076416,995.66394,1138.75769,2801.049316,990.676208,1162.059082,2976.251465,990.438965,1161.918823,-1.0,-1.0,-1.0,-1.0,0,0.0,0.0,1,1,0.75,1.85,9.4,15.79,9.4,15.79,0.75,1.85,0.3,2.6,10.39,17.63,10.36,17.64,0.75,1.85,0.3,2.6,0.0,0.0,0.0,0.0,0,0.046554,0.45307,0,0.0,0.0,0.0,
1692632438500059,2,1,0,95.0,2,286,1.78,1.45,-0.03,19.24,-0.03,0.05,0.08,-1.34,0.55,0.0,0.08,15.8,-1.54,-0.92,23.55,-0.92,19.28,0.87,19.28,0.87,23.55,1,0.0,1,5,0x0,100,1833.76,1080.81,1918.44,169.37,137.33,1,2,2,1749.068481,1012.328003,1150.128662,1918.441772,1012.144409,1149.478271,1918.441772,1012.144409,1149.478271,-1.0,-1.0,-1.0,-1.0,0,0.0,0.0,1,1,0.0,-1.34,-0.02,17.98,-0.02,17.98,0.0,-1.59,0.08,0.63,-0.03,19.34,-0.03,19.36,0.0,-1.32,0.08,0.55,0.084306,0.084306,-0.002756,-1.731396,1,0.001043,0.0,0,0.0,0.0,0.0,
